timestamp,gyroscope.x,gyroscope.y,gyroscope.z,acceleration.x,acceleration.y,acceleration.z,gyroscope_filtered.x,gyroscope_filtered.y,gyroscope_filtered.z,acceleration_filtered.x,acceleration_filtered.y,acceleration_filtered.z
0,0.0,0.0,0.0,0.0,0.0,-9.81,0.0,0.0,0.0,0.0,0.0,-9.81
10000000,0.0019243712282061855,0.041646074922223456,0.22330636943333815,-0.14729787032543584,0.07077240963746947,-9.868969678238876,0.001388913035133864,0.0020535203189546583,0.06299800313889364,-0.038180691356775764,-0.006500565982188941,-9.832475223833713
20000000,0.010170435131954085,-0.21348351699072954,0.7969707807254467,0.1583972947147868,0.06606048422794994,-10.009022834709338,0.015527917656992383,-0.08186577554270089,0.4159422322355538,0.016647302548505993,0.013212520161300484,-9.88970561043458
30000000,-0.0386589871691065,-0.2303581597756042,1.3536951938154542,0.08104067928820473,0.015023347834446431,-10.073134575177852,-0.05145054089828055,-0.15838058985560224,0.9325413948573991,0.05496197794388838,0.0009768076741132987,-10.021395508558797
40000000,0.01692314067002776,-0.4795845129629136,1.8509898563225453,-0.05157569732912491,-0.07837221268385818,-10.063256624212226,-0.0257196052186185,-0.309555386877356,1.4706775601825992,0.029268501067221037,0.02496567264975916,-10.08177897937905
50000000,0.018184524346675186,-0.6987489858791985,2.2047560467844978,0.08630763786658073,0.038146223829379995,-10.284647255229896,-0.019685863333324012,-0.5291499726701158,1.9137401604905562,-0.006211127746593352,0.02529633911481209,-10.180554603996578
60000000,-0.10298170771408119,-0.8359880733110048,2.6677936842781356,0.0581769054745121,-0.033745184484002835,-10.220958849400025,-0.0635514702126655,-0.7300928211411676,2.3236726001449775,-0.015657916361585148,0.015233478758843726,-10.160519520297438
70000000,-0.0714797085128096,-1.0025241337548443,3.0560711622062966,0.08650978545918656,-0.006288234456089007,-10.063679422439183,-0.0725589431713301,-0.8552155846079394,2.7298662158954174,0.008972371797321712,0.011388620583339953,-10.120432926972894
80000000,-0.005187417370737382,-1.2647928093198093,3.324703403030642,-0.07817873630787939,-0.07184681043155877,-10.195892232072275,-0.04848728480366537,-1.090348400149902,3.107577837757348,0.03844724167823524,-0.03515501164902411,-10.13928246092905
90000000,0.08618265884536114,-1.2634336983009762,3.7061397097343804,0.13512938648384065,-0.05646110243186518,-10.08590359449506,0.003952552776398322,-1.2394220176274913,3.4450409787615897,0.052894645023582834,-0.014471597905961659,-10.159129073271364
99999999,0.050867496753330896,-1.4434087077934465,4.048468893411433,0.1395414136729117,-0.06293503263084892,-10.225271791312327,0.035594664342159445,-1.3874458290218858,3.7789458715335478,0.07892019743463875,-0.03293898021476764,-10.196173166719616
109999999,0.1634613580156728,-1.6176716019469515,4.1956100151279845,0.08837752177644753,-0.07105201393035801,-10.22025432038341,0.09576850196581534,-1.5071015396620788,4.054813814151751,0.06879617858928569,-0.029174498118269207,-10.181747537639591
119999999,0.2901487922955858,-1.641797108541571,4.507876649381866,-0.057541058262869094,0.11165630363584536,-10.273630704488554,0.21100142181732368,-1.5647454294026928,4.313168903585742,-0.0035712007290626784,0.028114229902517014,-10.237350370762902
129999999,0.32943181431441826,-1.6008819717523086,4.760904754295751,0.13500854734934442,0.17053021260257495,-10.187005973216186,0.29547186500483213,-1.6086133430019083,4.563453308890659,0.024510324999794983,0.08412404364706433,-10.250377896761783
140000000,0.31497616165639997,-1.722997463114921,4.826514109383995,-0.10441787974295025,0.01729343274777281,-10.071722588214778,0.32165870865168683,-1.6980411699658629,4.746962060333962,-0.0227221909497057,0.09621568760424797,-10.209576430004851
150000000,0.4458342877114677,-1.7134958771633955,5.0859970178162905,0.07484716876205874,0.023581752542429713,-10.19105432439026,0.3812891219979968,-1.7313650185502127,4.9300274073645625,-0.010487962927948107,0.035620833918122,-10.190046897958712
160000000,0.5603508693968148,-1.720566331966717,5.159596410840616,-0.08830178335849576,-0.034848727960453324,-10.105295759121784,0.45788863239509214,-1.7555270270896364,5.091628800666357,0.021252074447551055,-0.0438083446369049,-10.174405825637074
170000000,0.6549514352331627,-1.687406817543478,5.345150068028519,0.08225418363861027,0.12510809887560406,-10.219413521901032,0.566056251033606,-1.7340652688650204,5.226612013080856,0.02888660609207585,-0.006423515549110914,-10.149195400609752
180000000,0.7320556571067401,-1.7165162243631413,5.3827006669665804,0.04520378605595869,0.025806177621986334,-10.216558554375416,0.6975212753303238,-1.7620657207648376,5.320384831396883,0.033141439176818416,0.03786632297022719,-10.207516984818787
190000000,0.834916289799104,-1.7956509963425649,5.507733797520723,0.14569671176163054,0.044922400142143375,-10.035783424931596,0.7709037827490909,-1.7680310896800118,5.424651741596605,0.007881292072833645,-0.004015839477133263,-10.152749266954835
200000000,1.0389687803297964,-1.7984335399128517,5.506392431655484,0.02224679299146047,-0.00036597994307788553,-10.110326635486421,0.9026314885400858,-1.7954588013083344,5.522811880308437,-0.007572996131846268,-0.04174070397260617,-10.127956444839024
210000000,1.112659536059378,-1.653294529122125,5.79922774698043,-0.02890581556441104,-0.06317716940599725,-10.052459305659042,1.04750142092605,-1.7266589655939262,5.632100497206046,8.985540572352055e-05,-0.02781777015881067,-10.118646802038528
220000000,1.2476116878953842,-1.6019602955132963,5.762513352162791,-0.155366845507112,0.05083818276287686,-10.257984071871979,1.129906996630008,-1.6577460459886544,5.732948453646617,-0.05004129256117831,-0.013878255716010934,-10.12278000622055
230000000,1.234546102617995,-1.5612701645791454,5.715965333854229,0.034835692102633035,0.013216411229171861,-10.12712453423936,1.2186594311852657,-1.6066247978106394,5.758697697983658,-0.020226008362056527,0.03095129799319002,-10.136617450170831
240000000,1.3324711125270243,-1.4274836563178217,5.630088612655092,0.04800358966766613,0.01813824154391412,-10.06354127074776,1.2816428621807665,-1.5226335786915688,5.677570881359381,-0.007857881930201224,0.013875286708609795,-10.11720948652132
250000000,1.4614537817998259,-1.4102410732795578,5.641965434254992,-0.019941811031788288,0.02666255542483037,-10.016142088126008,1.4035651391048696,-1.450755540495739,5.6451712414849435,0.02500227646899625,0.013391673711152446,-10.104500397907731
260000000,1.5703040055536732,-1.3226932186433875,5.424071613168694,-0.07296416111364223,-0.06544946280072343,-10.155725548986164,1.5286030168733968,-1.36555525528892,5.578279617053066,-0.037425660264990335,-0.020289970062334156,-10.142582012267916
270000000,1.6732363033758568,-1.1271918228137177,5.39256211667798,0.040742960551495365,0.06727265840595853,-10.148401665435156,1.6122466942376836,-1.271284743723498,5.476872735723793,-0.03150531672668622,-0.016185623292894715,-10.161852666731338
280000000,1.8779845236290487,-1.1245266763709563,5.23213641931184,0.08204003326074823,-0.055743994379619966,-10.009303912277423,1.7506555814721185,-1.131296631241813,5.345486637598229,0.01118776544595939,-0.051289842943151774,-10.138731952389596
290000000,1.9236758641184528,-1.0055047355093192,4.950039694549577,-0.1627890399300579,-0.05386475705305903,-10.247037473546694,1.8222829365864772,-1.0557263545933055,5.1598463666487575,-0.07163548898784346,0.018497847653635494,-10.165126143428536
300000000,1.8563740315117583,-0.757696115402756,4.730911787238603,-0.041122208476104656,-0.038690453173950354,-10.13512783953526,1.8468295789802327,-0.8995036949677413,4.9309805953569965,-0.059695094534741526,-0.014857115525854241,-10.215486754427289
310000000,1.9710427721436283,-0.7479274901062458,4.513722956641822,0.06352992294683153,-0.09685796083848544,-10.256021787833049,1.8777219164798136,-0.7741694635358303,4.703900904957093,-0.019790942894906707,-0.09615636305113984,-10.178001715753123
320000000,1.9205925852372567,-0.5763554033921591,4.335130102907387,-0.1302630534906975,-0.044379251982940404,-10.027053468310152,1.9244803986113617,-0.6668347439027259,4.494089965097868,-0.04414285646174067,-0.058523670091026596,-10.125535898414357
330000000,1.98229613805106,-0.40998027745164667,4.079953803002806,-0.11882917861109729,-0.006040262353044924,-10.120386319098445,1.9791268867057612,-0.5172299342224702,4.288644488667799,-0.07728494723169345,0.010874874872139784,-10.129708938398265
340000000,1.9517875657631711,-0.37038253894064466,3.848489146847365,-0.12711930548405087,-0.06179619787453543,-10.23769966043326,1.9775323852667426,-0.4514365792177758,4.0472112294477665,-0.062214029108142894,0.012178997066166222,-10.190077721809566
350000000,2.058666877673942,-0.18097860087706524,3.5647937866111525,0.018115433693112772,0.017933091946730907,-10.267553051633273,1.9841770782439567,-0.34385351389117497,3.7726827001355927,-0.04404018900448566,0.003786723501154581,-10.263777136833411
360000000,1.9500124284973102,-0.14966109735444874,3.216691118210067,0.010488988737857398,0.1483897265360945,-10.13446498078705,1.973985694625961,-0.2268555813136066,3.4817692395229294,0.0006347171348385101,0.08312613439256056,-10.18750904813104
370000000,2.0143093262360847,-0.1829050561824312,3.077178750894208,-0.12803304799171197,-0.001907659544412195,-10.18100342300497,1.9751528461526544,-0.1787833876686123,3.2127573343322315,-0.06113674923617746,0.07164092989235782,-10.17823198165205
380000000,1.8945896007977947,-0.0350530665762567,2.6548737371262385,-0.029742401514902015,0.06586190763771367,-10.128869685063968,1.9479759647789328,-0.11775373372721304,2.9466885187647445,-0.046684754391481016,0.056492450456902155,-10.163182187645482
390000000,1.880925221837205,-0.055778819035632005,2.5498355996255695,-0.05435228514609535,0.18217627386987592,-10.15946291441545,1.926688222167651,-0.07075169103535246,2.7080091757695213,-0.022995769956663935,0.062341995146440565,-10.15550202710392
400000000,1.7851048890676897,0.019627188306260812,2.1808955840408992,-0.0901394516010364,-0.10598403579559179,-10.233841933105204,1.8659105462448469,-0.020415161580513062,2.4229174701179956,-0.04970544499316591,0.05660834368400894,-10.19515705493022
410000000,1.693495355044846,0.12652529314833577,2.0471337138048384,-0.12863051809225012,-0.0019723249169169774,-10.365362676018005,1.7984576559450496,0.03964870997605017,2.1664587153172077,-0.07709423849029198,0.019375678508091996,-10.25358903520356
420000000,1.6993942479915893,0.11143434012678398,1.697996193727692,-0.011713293727442092,0.07924505699591779,-10.345559083006929,1.743187170593048,0.11071681116743515,1.9095764587291661,-0.04663801175485774,0.032625467471002985,-10.325281841949026
430000000,1.666304224084094,0.11321236465502832,1.3525390149785943,-0.12701828450071168,0.06762087625359056,-10.266631983778838,1.7195541717144303,0.1665277158188207,1.6005213347431302,-0.07846103122013984,0.050756386359143355,-10.279715375325603
440000000,1.5767905952610504,0.24490609161325494,1.1965924777913108,-0.00014543381872066108,0.04909772372275298,-10.32725588614854,1.6324930869114709,0.2275646605145929,1.3670347430311764,-0.0828307683358174,0.0688296719237119,-10.278958961159098
450000000,1.4524107807153386,0.3785591920065285,1.0539279436374238,-0.07931097974847423,0.033072901957962746,-10.46545808482983,1.5553569872007509,0.290176567273735,1.1659465560875317,-0.035009315431863544,0.04968469534717261,-10.322928709331254
460000000,1.4871989143248578,0.40175134896647174,0.8733031645686633,-0.028202605378593593,0.05484703918838822,-10.297804532127525,1.4890095726893164,0.3632226324418642,0.9505523597011799,-0.009618417287070748,0.10052470967044716,-10.299706312673564
470000000,1.2962465760770254,0.2983065923580812,0.6490797924602262,-0.029521844221720904,0.05886728475053511,-10.31048876317065,1.4073901280847851,0.32905665622156133,0.7264011841032421,-0.07739107326019173,0.10077461426981293,-10.287888489337876
480000000,1.1247755684167497,0.3562520523282917,0.3802291880251853,0.04575703356214538,0.08302851120665292,-10.252404798046957,1.302419879261001,0.33465244102237096,0.5127712020190296,-0.028267557161635187,0.10578053551002317,-10.296551163985473
490000000,1.103678194313733,0.2785216525466344,0.2085560114680728,-0.037597308758216194,0.05210795423946112,-10.2314191479442,1.1924752475409508,0.3061195946378197,0.3387109177974773,-0.03317480449274528,0.04219256547968047,-10.293260876352353
500000000,1.086395185128312,0.3499299911198817,-0.01793624780707473,-0.13258627424418148,0.03967455941571139,-10.285449079856054,1.1135512560194454,0.307079573587277,0.11118747817542007,-0.09000622590186225,-0.008065745425494684,-10.304179158088182
510000000,0.9056123467770976,0.17733949115526568,-0.13658562513065153,-0.1710380557023233,0.0066970624869266415,-10.343080502166357,1.0261400488593653,0.2709552166590113,-0.040258754917354034,-0.15847304425755881,-0.005189734139989637,-10.325954336417194
520000000,0.8705627928142139,0.25417159703390646,-0.4009286265675888,-0.06690169754047273,-0.13139041559006762,-10.3989947171718,0.8909524280225758,0.24276487228898175,-0.25402163670148953,-0.15887627777279473,-0.052236056799204046,-10.326965071343412
530000000,0.6503379987441835,0.2788715331176591,-0.3997947336877362,-0.048009712916946105,0.044175000930436095,-10.334175852751752,0.7900850641723154,0.233382935366231,-0.370900355279867,-0.0970114613012089,-0.009467700874798424,-10.338387348860453
540000000,0.6508741239949426,0.11171456465569243,-0.7045844992680047,-0.24457208218944432,-0.05881368910295754,-10.329224190619772,0.7088287215935629,0.18940957482050752,-0.5037401584916479,-0.13226938639121344,0.04726408596175735,-10.29519399346795
550000000,0.53038611090402,0.23608917562287768,-0.7532647781601673,0.09271407368072337,0.05196279343199443,-10.161525561990036,0.6212882401095084,0.18531333303031727,-0.6490305337189773,-0.038713925980733366,0.07015816165629947,-10.247357298458365
560000000,0.40867339862424856,0.08980217430537338,-0.7890966651076337,-0.26008146123374243,-0.013080710008833239,-10.235107686989712,0.5269306951365071,0.1645389779565855,-0.7386804897251589,-0.11318468125205605,0.04599309724932186,-10.252282200748489
570000000,0.3327807518414494,0.14248248444565342,-0.9126716372547343,-0.1014152102688297,-0.003091171587496661,-10.275808958226287,0.3835798660010365,0.14687260324052148,-0.8661441738534443,-0.1198603058344746,0.021376123507197017,-10.243143738920581
580000000,0.263827197206117,-0.011555141671899374,-1.0131698582001987,-0.1250805992202136,0.05943509599742293,-10.204290013579227,0.31086465663664625,0.08106608963423632,-0.9575143925005338,-0.11932697691430362,0.04819723039973457,-10.216432166114489
590000000,0.17906240784905103,-0.030842866623198455,-1.0857043575764862,-0.18191192103633297,0.02522165912032187,-10.18879852660131,0.2069360624000501,0.044968415986100074,-1.0004018571193578,-0.12403025388734232,0.044783123761878596,-10.215162615088577
600000000,-0.019060825161532586,0.06340696984277308,-1.0714299638715583,-0.1343008562637208,0.008404564519584316,-10.2515307569582,0.07603649957051804,0.04603182109314786,-1.0180480477559488,-0.13928526809265654,0.04857039152869327,-10.258670815607147
610000000,-0.10189964610797247,-0.016903988663585723,-1.1530982100060303,-0.1545686435052917,-0.00992120910547319,-10.086610622088674,-0.02982030468871035,0.032093219417172886,-1.0797865982502732,-0.13775660882031843,-0.0020137351186219586,-10.186146746728586
620000000,-0.13768992861814777,0.08870791623809242,-1.1000479419037388,-0.1181447578078442,0.022169924594673103,-10.11239265237079,-0.11566453957324863,0.03548262240279516,-1.0991489917578903,-0.11012593903065307,0.00017173402102761866,-10.153753886142274
630000000,-0.360382045172503,0.023062386621630154,-1.0944642116924954,-0.2850618774424357,-0.06881595778670863,-10.06972267545177,-0.23886862330049585,0.045424362340207435,-1.0908969076324437,-0.19233385067465938,-0.03955429406198548,-10.137701032383724
640000000,-0.42679375379687134,-0.10490726020955768,-1.0408766551661877,-0.040750894372210966,0.013011623925878311,-10.16453763117615,-0.3668357575366493,-0.04324031571908182,-1.0856563711195084,-0.15965688936254602,0.0009195760637992698,-10.149517266977021
650000000,-0.5112762686485199,-0.12741869042269127,-1.034108286087489,-0.11787328683044229,0.09382788184498661,-10.37027595565236,-0.45928589858244245,-0.061820255111960334,-1.063772837218036,-0.13676382299405565,0.042501924445177246,-10.210270468297342
660000000,-0.5725664676761979,-0.022850756200961768,-1.1104497983074981,-0.24162655156968643,-0.08198770817251469,-10.103063976614564,-0.5141596895788382,-0.08182844886379037,-1.0679064293679155,-0.14378939261657536,-0.02467912962982579,-10.171857834568359
670000000,-0.6887922855782916,-0.11155758486034772,-1.0576860777520725,-0.2020711910126567,0.12828171518290102,-10.264524804819406,-0.6200445091841691,-0.07153096848811616,-1.0876637628938433,-0.16673735579528234,0.005384732048198223,-10.188753729912763
680000000,-0.7618867041410193,-0.07388652435292171,-1.0577200243079121,-0.2149235637958492,-0.013329707375036724,-10.209550833175177,-0.7037208780678661,-0.05407445385007473,-1.0529634222431001,-0.18875111907520914,0.01941394158810795,-10.202216651510504
690000000,-0.8513785972391039,-0.09394959836088634,-1.0423771180871175,-0.19866828960689242,0.05987034919675848,-10.213415947653218,-0.7777041865475015,-0.06825687110561723,-1.0202020939013496,-0.18666454047930284,0.046756083839947504,-10.220166536469968
700000000,-0.813584292341338,-0.2074674536209208,-0.9416500730130452,-0.18526481135871184,-0.06336783954907656,-10.285347447002561,-0.8200218602900522,-0.10551547029139843,-0.9592217657321344,-0.1935039852462945,-0.013986243318137678,-10.24326101972246
710000000,-1.0454770790431795,-0.08074998876277076,-1.0078885372249928,-0.04665697224154641,0.07641034213578679,-10.23356264015575,-0.8912186168768292,-0.09601466702983129,-0.9742814754607625,-0.14787740134920443,0.033688643474847374,-10.250998601177178
720000000,-1.10422796882686,-0.12073493627813628,-0.7834894263749583,-0.21299592283802884,-0.009125681935189516,-10.199000591798681,-1.0011035840042324,-0.07388913897870134,-0.8757867487444784,-0.14247252435918498,-0.025105828620618012,-10.21845550144323
730000000,-0.9820242480712773,-0.1698923210168128,-0.7616125109201632,-0.1476340685686695,-0.0356495324138537,-10.228567051690025,-1.0461976046157626,-0.11081034485373184,-0.7947973752142466,-0.16032755023829215,-0.03011113486482201,-10.202716224761874
740000000,-1.0912000949104164,0.013716852702196108,-0.6176071607710195,-0.2634101336878676,0.04296733977747928,-10.16960303542403,-1.0922256086149842,-0.08231048146246008,-0.7266742917094271,-0.24693775283248676,-0.009747070418000962,-10.201691301996135
750000000,-1.1135794670384334,-0.06585026438166267,-0.5552331217171081,-0.2047682822588611,-0.19467520316857548,-10.270796433311041,-1.0968574424068733,-0.0735618637615061,-0.6424090011177839,-0.18450035498269335,-0.03566899165899691,-10.206590150668362
760000000,-1.1155998257021496,-0.053910342650096685,-0.5328500759911492,-0.33291352613950076,0.0014394502856333383,-10.235465810097043,-1.1282983564166047,-0.058633453867996614,-0.5870352986259606,-0.2348885451530769,-0.018314592138133096,-10.226750606448842
770000000,-1.135942576461607,-0.08561374397997686,-0.452991673149675,-0.15833700896598066,-0.02085476398917652,-10.286335816624343,-1.1489433967785088,-0.06391757692834582,-0.532543470481103,-0.1976749901510646,-0.016996277793811822,-10.247192632740935
780000000,-1.1700363528971243,-0.07589401587457488,-0.4721091456858554,-0.34324680501024796,-0.0017925509451638955,-10.271092072877687,-1.1539504668161227,-0.09006084503349496,-0.481550575513267,-0.22818990532476302,-0.04184736991182765,-10.254082355327446
790000000,-1.181954688526363,-0.1375772447110554,-0.31149876908747864,-0.31407213485578994,-0.1081293848828864,-10.209975140355864,-1.1490745277451406,-0.0846721111043505,-0.4094312172093811,-0.2524416141715507,-0.041717552273292186,-10.236421118343939
800000000,-1.2404072416121192,-0.00924439257287038,-0.27899835670888945,-0.3946378926336517,-0.09423311110085661,-10.245453646421806,-1.2034804506468562,-0.0851679175330865,-0.32612272671611087,-0.28842786485461225,-0.06257950239186046,-10.196316393596481
810000000,-1.1032723587597828,-0.20469094082185163,-0.3270022566750762,-0.3449868370984288,-0.06870746434606884,-10.161740308510694,-1.1652837353473948,-0.1232738255373795,-0.31727897408013644,-0.31424970049461065,-0.08140798588697176,-10.172385136054992
820000000,-1.2130538607988237,-0.0937124724675657,-0.2642103136597774,-0.25568432579028716,-0.1468358443006811,-10.217027388156644,-1.1746669698365215,-0.10036163076419119,-0.26101443713115835,-0.2698095692970605,-0.07077315041675356,-10.185556595833798
830000000,-1.1918067036847289,-0.11467151704059145,-0.16554697131103727,-0.3415606202193054,-0.1748989236760965,-10.190897430891829,-1.1910526188453043,-0.08244631284933558,-0.18727695023354493,-0.3470220636786241,-0.10916209382418936,-10.206459212458624
840000000,-1.155161493418128,0.08034902975115185,-0.11294382871432986,-0.33397825092604466,-0.09885843375648502,-10.100754674856086,-1.1806523498616333,-0.04262535834738575,-0.11718795544984317,-0.3471837772038563,-0.11820199926950894,-10.197369126547427
850000000,-1.0722821306410097,-0.0993362071502457,-0.04119337041231058,-0.31890468062359845,0.06722528294150153,-10.19541641251008,-1.1424690524242622,-0.046797352094651454,-0.06535423802101717,-0.33506626500126674,-0.043779554157846415,-10.232911019336507
860000000,-0.9810529516975062,-0.08760357678152299,0.15082920134473313,-0.38291418530092974,0.008409333384281951,-10.31023690734119,-1.0762216363779422,-0.0599052255968197,6.021475288907341e-06,-0.3607369183006312,-0.00424965868898727,-10.293216562834404
870000000,-1.0186718664856276,0.027025065960817253,-0.01317831246964643,-0.35929700924614383,-0.028368721227587476,-10.333319748887357,-1.0287904692627428,-0.04016045531334684,0.017971087410801768,-0.35027914332982024,-0.01938255970546865,-10.309086313509031
880000000,-0.9330985377984496,-0.011969335877880433,0.052033053126621195,-0.21609299196782783,-0.19311988798430657,-10.190198038898686,-0.9973867505986225,-0.0022090695439388056,0.06137463101748107,-0.2985125520867269,-0.1088102065914607,-10.257101093122836
890000000,-0.9615701515891512,-0.07907431905830353,0.12142027435341307,-0.34628191535597264,-0.07639347754556498,-10.278731441356722,-0.9677828071161869,-0.001089558037118873,0.11794766041054061,-0.3426246702220001,-0.09137416476570642,-10.221079827982615
900000000,-0.9510487297833425,-0.13694032704562778,0.2434589234622091,-0.4751034450551669,-0.11324956329046304,-10.156681942530028,-0.9634087951798177,-0.06458636084560782,0.14691796529349432,-0.37158600665669306,-0.053608917319036054,-10.179242666818489
910000000,-0.8503588471989941,-0.13474721001801604,0.23353979135217756,-0.40711441086987316,-0.02456546334517832,-10.134010403808881,-0.9262147580028465,-0.10144981453832874,0.1825351949606137,-0.4410333318432957,-0.08918445500457005,-10.185860518247713
920000000,-0.9214846559206836,-0.047492810529451986,0.15390356277786155,-0.4271430712993328,-0.16824561142092678,-10.127548565780037,-0.901570999062729,-0.10550070392617245,0.18485791341300234,-0.4495777477851143,-0.0932043768472216,-10.169420636680112
930000000,-0.8018154987757294,-0.07504997410602607,0.20378310799681723,-0.46646064826656153,-0.15763483741311507,-10.155459086050401,-0.8443261701629097,-0.07659461797137723,0.1962541243790505,-0.42442022934266865,-0.14401185799511068,-10.163026364367743
940000000,-0.6827851011566856,-0.08069818675017193,0.37426011871542086,-0.4524673367883211,0.07219984505196755,-10.308767274701747,-0.7636421884902993,-0.07987754654645263,0.263693010163517,-0.4373377381839746,-0.04192391187922711,-10.207137286117483
950000000,-0.720672444625109,-0.05032479121250129,0.23857762340463307,-0.3189870984996643,-0.00544828084161024,-10.224342912832414,-0.7391492169124404,-0.06111697335562788,0.2611615414177711,-0.3745303207104743,0.00016333509826265205,-10.200553383128785
960000000,-0.6141395131619417,-0.08487603070270319,0.20826749076106915,-0.42043402474326536,-0.04987158695367504,-10.096032205987276,-0.6564113746772029,-0.08169768292751786,0.2576923532055455,-0.372045537655909,-0.008917663048886767,-10.137542295449304
970000000,-0.46632689510937253,0.052949985207074515,0.3093388725176103,-0.5191112836026366,-0.06377551801314595,-9.91915945838113,-0.5486040496528377,-0.00531902996787835,0.26213617522716837,-0.42646066531902216,-0.043155463547165686,-10.101512464603825
980000000,-0.44717697231354453,0.15571793757873148,0.3991443563617286,-0.5108308713307649,-0.06322199642264585,-10.11315171284346,-0.4837991697143403,0.06024041813402466,0.3333992611585118,-0.4750734256620708,-0.051057559600902844,-10.071409293540867
990000000,-0.350901855434594,0.0902229369094346,0.2810338165261791,-0.47225300771169226,-0.1750378114695536,-10.156095224149494,-0.41943443734250774,0.07218177030656123,0.3414425279192893,-0.47267410245418867,-0.10402441686919131,-10.09934542818706
1000000000,-0.34701513884656265,0.18303003078767932,0.32430863573169716,-0.4761187115194609,-0.19834080557996497,-10.09738645598926,-0.3482933254337171,0.11531270644943478,0.352092223789564,-0.4633871202976169,-0.14827350842549,-10.101532235592716
1010000000,-0.20567562935428343,0.10138741980224061,0.35662387964721265,-0.4190463570500288,0.029637491495856677,-10.06535636583924,-0.2473665868466755,0.12673535225607893,0.34987528833164055,-0.42471980195580145,-0.08642673080286459,-10.068354284508203
1020000000,-0.12515516219819434,0.15314113633967782,0.3329397802386057,-0.49478944694338933,-0.14446368238623322,-9.893391346711393,-0.1809324693015602,0.14774408596325564,0.32541890230564646,-0.458149258549101,-0.05132669742477001,-9.998347569637284
1030000000,-0.11301042106021786,0.18125521241863954,0.3202968231223841,-0.630635907341385,0.0011384087905286014,-9.957968128699788,-0.13389926022756724,0.18482386362312764,0.33833304180739343,-0.5245954673535108,-0.0591750484849312,-9.942498162438891
1040000000,-0.1617913259717697,0.2836958030194026,0.3115193001249719,-0.434270634739477,-0.20028272428817684,-9.997692108473984,-0.12582446028566815,0.23361134849097293,0.33557717184679337,-0.5155545946251491,-0.09949063992996414,-9.948921560148982
1050000000,-0.06874955091451238,0.31296180679242136,0.36477774617575487,-0.4921970390078156,-0.25136396456052096,-9.921671731024853,-0.10119123040195224,0.28887992605652524,0.3514655646364167,-0.4932665799544338,-0.1638023896311324,-9.960521332146133
1060000000,-0.03516903524295762,0.2790313016415418,0.3925931735249807,-0.5659902686554323,0.0076592617910431204,-10.070128193678215,-0.05295344747119219,0.2952547616396423,0.35639989867938837,-0.5197637327433755,-0.07984110608041355,-9.994367487853616
1070000000,0.009997878681396052,0.4785964718713905,0.32531425894651644,-0.5583181902411221,-0.09016540637454011,-10.052872522068183,-0.005376370021384911,0.3796145928604314,0.35780923315130053,-0.5377413038965185,-0.06997469955267281,-10.028680948368946
1080000000,0.17533787251249341,0.5243791664479125,0.3126333269154727,-0.5854233025566015,-0.06986046319405073,-9.901421112372727,0.08886690403225089,0.5038278363513237,0.3239292860287382,-0.5833213649760886,-0.077004021018268,-10.01517433527409
1090000000,0.2831945240065027,0.5477713191508599,0.23493065907918012,-0.7147995266723559,-0.007947037452526961,-9.904676746676316,0.15137822966174008,0.555807277280479,0.2930143887882372,-0.6206839851776257,-0.06564443198779413,-9.977219498438398
1100000000,0.20298718324658374,0.5014092210757285,0.26283681805439746,-0.7923544521100274,-0.007431146947224284,-10.094465435153161,0.19874885750665652,0.5478895852089003,0.28113607836545795,-0.6784283931864775,-0.09876250398323638,-10.04045030174148
1110000000,0.2696181196406078,0.5463171539220427,0.21184756184406436,-0.45115789866764106,0.00012880037284059356,-9.979417829658688,0.21176997624135258,0.5680456505140924,0.25639970501762177,-0.6114065340533208,-0.057854999343944544,-10.017324739999541
1120000000,0.343469719924522,0.6416863658311409,0.18229312264102354,-0.561261423236515,-0.11989728330007929,-10.008998598691722,0.28199061781733137,0.624668562462863,0.19811540425557223,-0.571187832207393,-0.06688384456022717,-9.997812392003146
1130000000,0.31282218113687915,0.7971518023581006,0.2177890807279787,-0.5592225120798491,0.060387722642576885,-9.983838959660597,0.28925086203110684,0.7345559746275021,0.19814402240471857,-0.6072149100716667,-0.018081768977455493,-10.000503942914358
1140000000,0.4426082280069248,0.7107769569834339,0.14689496009575798,-0.7229814215458001,0.02701492318058087,-10.027331917654495,0.33012061909219703,0.7678787281323767,0.1949415855446744,-0.6706955051027079,0.007181991294370046,-9.977219922319998
1150000000,0.3910351517339806,0.8561213934519877,0.22207065848257046,-0.585505206694018,0.03317480543842229,-10.074294637845536,0.34048181601484145,0.8168900059425556,0.1921098221348751,-0.6562484955315109,0.0061012959909410944,-10.026686428846755
1160000000,0.35519901438936985,0.8485333898288604,0.23035739430553548,-0.6448770207368009,-0.002704200030803003,-10.055797672491554,0.3575549994092479,0.8575622463711069,0.18667676551772014,-0.6487557808048685,0.03210624704836161,-10.043319970748339
1170000000,0.31351883002431774,0.8015903251370927,0.16272891484174418,-0.6388773383514578,0.002573271314156876,-9.97463612736647,0.35395612898708617,0.8594480842668675,0.19116185824361548,-0.6125310155984144,0.006660089050912183,-9.983306545084883
1180000000,0.3307435627937418,0.814505052892279,0.1322036951141399,-0.6883501775892641,-0.17469001949321697,-9.989957234575838,0.39563303065152894,0.8564343807475824,0.16109050670300576,-0.6516139135297686,-0.06545203914722479,-10.022123630799545
1190000000,0.36587080475781236,0.8880501091996607,0.1092889657926433,-0.7208140484329629,-0.03049846580060957,-10.062141260467351,0.3873073328657186,0.8762204869487409,0.10780563389408838,-0.6599448779522865,-0.06473543999990364,-10.062513871988514
1200000000,0.429192881942984,0.9138854756307933,0.03711891727903693,-0.7542925818714202,-0.022501514041362452,-10.033918029340422,0.42118865432772445,0.8793567807090777,0.07229316848115974,-0.6996539475593863,-0.019833638214476472,-10.050510465515092
1210000000,0.34217652831061646,0.8200707693472943,0.030263343121295798,-0.7462289657583047,0.03586444196220073,-9.91712940904719,0.39655515220809223,0.8385572935435195,0.06402212971197885,-0.7481370426271194,0.04772633145718737,-9.988636211607798
1220000000,0.5268705316830269,0.8860184391181162,0.012738859981411901,-0.6444623203192767,0.023060240662047305,-9.891067073454995,0.45502197099972097,0.8779373325684923,0.056623958456582704,-0.7099837443312803,0.05521500837941665,-9.92344010971531
1230000000,0.46155337891814024,0.815827997073709,0.039420188730540796,-0.8400738660500104,-0.02368895772189623,-10.00419373644323,0.480481349202183,0.8519177204866432,0.050605504493644454,-0.7165205419709988,0.029939443321920958,-9.980770465802603
1240000000,0.49254905078668915,0.7848321457198706,0.05656794479585405,-0.7357605033341906,-0.03054353680861633,-10.048983842441224,0.49144608127824435,0.8020087425305581,0.03498943610755606,-0.6775996284267397,0.026588210788232557,-10.057596758999697
1250000000,0.4495745961120491,0.7755418635827817,0.019602879099035513,-0.7793627020463427,0.009293256490856296,-9.97013857680516,0.48587789309892354,0.8170459608199834,0.02832808977125418,-0.7197107600271677,-0.00486440029061693,-9.995931283582038
1260000000,0.33784884160436696,0.7230745181572081,0.06289669824265852,-0.7717082297915927,-0.03888048880067369,-9.903917558867708,0.43931890744382085,0.8149915447774323,0.0318699442548909,-0.717290403907764,0.0014137865260779973,-9.947490719457942
1270000000,0.5206961448784599,0.741522644832701,0.014187900491868851,-0.7861734150455085,0.1587014679766874,-9.909743738991965,0.4623423735300117,0.768322729107825,-0.000507352576143893,-0.7084813174324394,0.08888251507815828,-9.954243364508091
1280000000,0.4971552106667403,0.6859686678170424,-0.02244968799788183,-0.6662389481377307,0.06604103605068957,-10.064671935655964,0.48370844990046385,0.7358797971642456,-0.015517649079548064,-0.7323856371244708,0.032340017898308426,-9.987555422393275
1290000000,0.46135790963392664,0.6534211690339057,-0.041275247410123395,-0.5900698772602239,0.04083505800815927,-10.05627705463372,0.43932486781967184,0.6994965356191595,-0.057278090085702754,-0.676254970230477,0.03549533516083152,-9.993214334216601
1300000000,0.39835265070161147,0.6198596842259211,0.0034704922933862653,-0.765131161051057,0.11817795019215063,-10.027743046742113,0.45629041851416485,0.6766087063116059,-0.06132200261720847,-0.7220329710747295,0.07769846265001168,-10.02225331228155
1310000000,0.4007607398014437,0.6266038740940769,-0.133675873862628,-0.792086303450743,0.0898338717071619,-9.875879974408063,0.4165377793295236,0.6337781565489213,-0.06355529437051133,-0.7627945471742901,0.056478382929555274,-9.984292558249756
1320000000,0.4075288832692903,0.5895446104828729,-0.07758120909551777,-0.871790072153886,-0.047758072186379216,-9.870127696938601,0.4025373545809706,0.6209554663483507,-0.07508634561048404,-0.7972822720153333,-0.010797014095371557,-9.934627225798787
1330000000,0.3447734520216602,0.5756084346124524,0.005606853492260311,-0.6971824474331766,0.06376029228348953,-9.96749799393221,0.3745972073766524,0.5804940108056862,-0.047130830627873925,-0.7743177668648693,0.006484697349525316,-9.94547189064534
1340000000,0.3160290151941179,0.5589361473398807,-0.17693507641968087,-0.6657124976320117,0.06878273965416051,-10.020393003784232,0.32225231044298264,0.5464945839991658,-0.060208733584175916,-0.7052065736870673,0.0017827070742935103,-9.971420223253936
1350000000,0.35365078046288473,0.44007589578165013,-0.0997589322646108,-0.7170594142220128,-0.030507008467432636,-9.940065000850751,0.3375381637838018,0.5095549259648224,-0.08678446581369648,-0.7219613510891004,-0.04419513663432932,-9.988781985712524
1360000000,0.41917019795384985,0.3499382400243327,-0.1007066907959499,-0.7904291162373974,0.04733932442757664,-9.803840431088055,0.36570779484755067,0.43326863263088944,-0.0980303364451371,-0.7572236853613292,0.021198114450228272,-9.942367401242327
1370000000,0.3257420213854255,0.4432461939321916,-0.0861554651561872,-0.6757995810146777,0.0630121302756557,-10.090984537164505,0.33052402237495027,0.42449680612011004,-0.10663094023376694,-0.6953773826684079,0.04129450998437779,-10.025907039930777
1380000000,0.24584614144793202,0.2999255813779252,-0.07603105656993425,-0.6909260945677528,0.035437030582938955,-10.083306712506776,0.2971006081631232,0.3416834651047353,-0.09895643929875537,-0.6855523323639519,0.034768921648027605,-10.028604705971015
1390000000,0.23537988676871893,0.3436528973900923,-0.15865482816627482,-0.6738882430735914,-0.05440215913190267,-10.092141943208508,0.27094898537037826,0.3427762606573864,-0.08366913409732928,-0.6819494871023626,0.008762671809982064,-10.025876375049574
1400000000,0.11397182679378708,0.36288779655919223,-0.10284126756377676,-0.851070414169012,0.07677485624580153,-10.098936552753177,0.21431704314109523,0.2993182562116148,-0.1026153347880927,-0.8168133984288917,0.03805705780710478,-10.031699307405376
1410000000,0.17048429583872626,0.13083563210585258,-0.19713867461458928,-0.7522355198303282,-0.03405267170969422,-9.940273313910284,0.1909763959997301,0.2555022855804608,-0.1280707826360729,-0.8105710845138411,0.024081717895365107,-10.01469109499848
1420000000,-0.0006900835821826018,0.1337239921979329,-0.0979679298706219,-0.6877473730203455,0.07721483214707778,-9.920807124544323,0.11364784028155966,0.19942274718671585,-0.11166719074295184,-0.7372512965770168,0.022122038018617663,-9.960517265195916
1430000000,0.08853105531207749,0.0757691867905072,-0.15974269168110128,-0.7726356982014244,0.0026017419648925594,-10.153572587645623,0.09401988784444498,0.14448857327218734,-0.13627207940662617,-0.7354147182040562,0.023196505215636855,-10.059069880196887
1440000000,0.050727127207032534,0.073693983712873,-0.12120829477755433,-0.645121229830964,-0.02749136206700724,-10.0840775039142,0.06640046549837444,0.07881286451904433,-0.11390406127559446,-0.6844040727693596,0.015524784576666062,-10.09749527241268
1450000000,0.013982761304062289,-0.033099193289982426,-0.10708402149917076,-0.658541830378926,0.07410241498307127,-9.99398653278648,0.03933313097852303,0.030418963170227457,-0.09759132898477739,-0.6802301669943356,0.05282685410573877,-10.019114618801844
1460000000,0.0006465569323118835,-0.016111009190642078,-0.06608402020013346,-0.787793348928399,-0.05913891554016757,-10.169219077095798,0.024870250215354717,0.009169430812917155,-0.08812354986625644,-0.7063630497991783,0.02550721699693601,-10.053341979342667
1470000000,-0.07505067035628515,-0.09015368964323489,-0.0600125818955944,-0.6859855862819,-0.004976677596789039,-9.978547715489697,-0.017682707515334264,-0.024020267738245574,-0.07099632637766357,-0.7475731094604162,-0.007774344996528792,-10.050957550728283
1480000000,-0.0007229552597980901,-0.057060383722412046,-0.1038221045652601,-0.6982941403589076,-0.09693381834026052,-10.098772105883254,-0.03026467676381932,-0.04075171646531993,-0.05051111735636793,-0.7029180036007429,-0.017841146564789023,-10.054371141108192
1490000000,-0.16151032792440526,-0.07982726062038731,-0.08660321135495594,-0.7505065049591855,-0.03908849939432227,-9.946534198146525,-0.09493414231619508,-0.06813337963855644,-0.06683672555052161,-0.7182511649989187,-0.026393170064318527,-10.03574958994787
1500000000,-0.11411410352284353,-0.21766709017625163,-0.17119771142085677,-0.7512420547501351,0.001416253824097713,-10.021917049976155,-0.09785360443216481,-0.10370082508034445,-0.09134657012151681,-0.7581638024060282,0.01966832752271417,-9.99405241783281
1510000000,-0.0023202912958947275,-0.0707678276784611,-0.07270761145533716,-0.7412692203778949,-0.018482443595420974,-9.941963807558961,-0.07006161707398165,-0.10709695487935864,-0.09614148027725569,-0.7559586958988241,0.0113806817012176,-9.980233102163126
1520000000,-0.14246749961961713,-0.10653895194963414,0.03584021043632882,-0.7719503155009187,-0.07552630607310626,-9.986174761247453,-0.11488653984764766,-0.10477527420906932,-0.03253048076241344,-0.7743493399987169,-0.005213475847617926,-9.976401897025475
1530000000,-0.07255518222094601,-0.21872868290275582,0.008139790222243936,-0.7782547293585906,0.014372495118689153,-9.792036613714034,-0.10822591061600323,-0.14618890721257138,-0.01426706348568938,-0.7497614528600296,-0.03993770715723281,-9.934549402755005
1540000000,-0.08889682034775029,-0.08395080568182342,-0.09711631567793068,-0.7589875899786127,-0.0372070773131471,-10.049088503249438,-0.122858906809681,-0.16578285663034262,-0.0599722493367698,-0.7654972307831585,-0.01429850583087906,-9.96601200025335
1550000000,-0.14597207768743112,-0.2548728997112914,0.06288207867156707,-0.7743979983891859,0.09890987252978907,-10.009355200190793,-0.184725827375804,-0.2133377899046519,-0.01463675977383428,-0.7356893192313592,0.037718331944664105,-9.981284243145659
1560000000,-0.1492312722292644,-0.2053915930311614,0.03605305833739168,-0.7209254116870162,0.0590247254855126,-9.915912054390542,-0.17358801529629903,-0.2175048727075864,0.011898212584775247,-0.730928854737865,0.05331228497435811,-9.964056427463957
1570000000,-0.10365807415265914,-0.28034065026411387,-0.034697568605516024,-0.724294225755336,-0.015847360131816042,-9.988155954414436,-0.16529478706983455,-0.27174346267831184,0.004992280103132046,-0.7037455448752225,0.011582532583853979,-9.964076615563842
1580000000,-0.19037123707763992,-0.3728217942012836,-0.05430616103589147,-0.7994727673876703,0.07928553474339776,-9.800873479180787,-0.19574480970712016,-0.333729519891557,-0.020516904269621904,-0.7266786930198533,0.015068657044990774,-9.919458960246153
1590000000,-0.20146071548916064,-0.3314395467035624,-0.03299087893823714,-0.6734725578515942,-0.027614050565554472,-9.86136253827897,-0.23554656859960243,-0.32954907475724154,-0.045838573750567005,-0.7134842363506667,-0.022863527756589556,-9.921475225795238
1600000000,-0.29913940484392754,-0.282014235472971,-0.01123995905533631,-0.6126861302487401,0.04769478344356942,-9.76534561660204,-0.26626824253747033,-0.3068372390345526,-0.05037920598402916,-0.646629343877352,0.03108668584610024,-9.835343197622867
1610000000,-0.2996116380661538,-0.3767594913013503,0.016780678332964503,-0.8170542862284412,-0.03419919591739966,-9.854682351772782,-0.27994176125987147,-0.3223180788867292,-0.030499041922319253,-0.6859744413041192,0.018175436944416583,-9.829941468455958
1620000000,-0.22719657158574386,-0.2808919567074901,-0.01690178890320068,-0.8108850758605856,0.006849544530344809,-9.80776108213718,-0.2943081839153912,-0.30916447349788306,-0.03456030216295554,-0.7473772574669961,-0.002543712941751078,-9.797141970626502
1630000000,-0.29023793386077845,-0.32643122977614203,0.08244670701870388,-0.7098085118343908,-0.07550775643411275,-9.91578077124255,-0.29543526482531896,-0.2986890082713681,0.010631546118647056,-0.7119286365533535,-0.028809896109368918,-9.840530148327382
1640000000,-0.23167276268270218,-0.34701193566538835,-0.06270008519267184,-0.7566767078900664,-0.00033158234096135157,-9.882106062097149,-0.2675774686758578,-0.3179382403686164,-0.01145264901355311,-0.7357342530425732,-0.032187452823332095,-9.886791437466002
1650000000,-0.3262859440724417,-0.29068628517846756,-0.05414015377318169,-0.5845274517171815,-0.1135074162795055,-9.881387385133529,-0.2921546291350503,-0.3357005378777618,-0.040358430539971235,-0.7325226249689208,-0.03526226137596543,-9.86178733948777
1660000000,-0.3731857597882441,-0.29983118492524746,0.060277729151743405,-0.6681557572680458,0.05072011054205174,-9.877677326092327,-0.35302343570170724,-0.32199451899486115,0.02375440159737461,-0.7168804757610521,-0.02925630658121596,-9.864849364517877
1670000000,-0.28202959041878767,-0.4217166544372637,-0.021305844087802027,-0.730244181931072,0.04536679392145601,-9.917766604414048,-0.33558409169046083,-0.30210418946219064,0.016603194359755425,-0.7019366264030665,-0.00846512094786278,-9.873405087086164
1680000000,-0.1583292444702417,-0.22479208349118357,0.06209545145930484,-0.8208750773492841,-0.1050366217262813,-9.783322002728534,-0.27835059183681654,-0.28846480697257526,0.020883757379482885,-0.7326800809843411,-0.05764945726035964,-9.864718567336315
1690000000,-0.20868782590317836,-0.2830674317000867,0.0011816593422811147,-0.7671161449081562,0.08065186494325999,-9.875853232534594,-0.2531804720791527,-0.29119396817814563,0.030948770517601122,-0.7783687286298783,-0.03084392270377866,-9.878033128662116
1700000000,-0.17501735095136425,-0.19348198534424899,-0.05342562248775041,-0.7860850007196063,-0.02931824646187351,-9.684904283263027,-0.19103961730171384,-0.23770978612453955,-0.012436414523061108,-0.7750294131743465,0.010462315793363455,-9.813868058812044
1710000000,-0.2050990823772439,-0.23578958115124085,-0.05397663651062428,-0.6803803213574096,-0.011010700950602937,-9.79545198101725,-0.1964976007520431,-0.21677954424890344,-0.019278420046851354,-0.7308743365897877,0.02468529581118196,-9.819224930852227
1720000000,-0.14453877508337407,-0.21565101531944464,0.002551980836918752,-0.7173142498726752,-0.033892276462550004,-9.952831544571005,-0.222049071791213,-0.21306870476543333,-0.010372677040938031,-0.7230843003659023,0.01990809495641195,-9.866648836781943
1730000000,-0.18144978036565637,-0.12917208802684016,0.04592904180601539,-0.7464203880833141,0.04852430099646309,-9.860231086406182,-0.20978905018599817,-0.1750935771687645,0.016015708771749453,-0.7195044982755292,0.0021190206324052706,-9.866139789564254
1740000000,-0.09812518104751876,-0.2115567837486062,0.14992303535600032,-0.6965663572832549,-0.0819586761494542,-9.864755989175828,-0.17140052877522,-0.1512650567754213,0.031069128243410626,-0.7134437788286738,0.0007210336197339823,-9.865707778914665
1750000000,-0.037025123484112035,-0.09682637635654098,-0.133957945633252,-0.7995963657520649,-0.06307154249671597,-9.90692360903274,-0.11115819004847217,-0.1537247164165903,-0.010728008872219842,-0.6943441650598089,-0.026519179027327026,-9.892941392081813
1760000000,-0.05919380267051605,-0.07479567134528034,0.030168470913612057,-0.7710251243129203,-0.0036385508019866446,-9.899106601516468,-0.0785571132779591,-0.09231797219436512,-0.023273523836900987,-0.7559014161331836,0.0012705374556273678,-9.867729616900675
1770000000,-0.08568326043286431,-0.09364482973536178,-0.052943058143662514,-0.7655990726787911,-0.05148486126180349,-9.7925244159761,-0.08299738574170584,-0.10554718590760676,-0.01700846737764714,-0.7560197421113277,-0.037565524386702076,-9.83911738169341
1780000000,-0.06681942913712999,-0.08368894477383075,0.06591389076188686,-0.8410189181903469,-0.010051867445684353,-9.879011038819042,-0.08172042783360384,-0.10464663001171846,0.03524623337590363,-0.8304021686397228,-0.04664250160154909,-9.860824149606463
1790000000,-0.12920565785748403,0.075739882867277,0.05205433994971989,-0.8692185191797333,-0.09305795651596287,-9.857799231502351,-0.11566127195675649,-0.04499708594565929,0.04182038170545757,-0.8292423353931986,-0.07442046175069963,-9.869401549082436
1800000000,0.0016373884707322484,0.031939388592225754,-0.06590214629813962,-0.5842177477945159,0.07602217742290762,-9.856433449794038,-0.07113122246791731,-0.001534297828989846,0.0007936039829701536,-0.7264794227570976,-0.013798821817538255,-9.86898158754029
1810000000,0.029920100163627873,0.06802158188523344,0.050662771445995014,-0.7027055378044897,0.00121504531117015,-9.878671384950573,-0.017901392764502953,0.04123756421728851,0.015991010069449443,-0.6985523536033292,-0.03019428441342266,-9.849669501361785
1820000000,0.027699884866321065,-0.0013843690715623358,0.040834950552856325,-0.8075010813286794,0.15879644563956075,-9.925503215265318,-0.005777771868397655,0.025388500704485235,0.02888576849992787,-0.7376323471800539,0.05761621370705289,-9.886616036298248
1830000000,0.07060432470514508,0.18824161115746657,0.09180938627018194,-0.7061056812126568,-0.0005281007900966098,-9.780700840146809,0.016974213294783175,0.09307220941569777,0.05097917944172868,-0.7092174782225557,0.05270004904648447,-9.83340188241539
1840000000,0.1804067387341391,0.08578727913098035,0.08009853119488022,-0.8018401960542717,-0.050911693691802824,-9.823110680441742,0.08614357757137181,0.1066657650210737,0.04285388361002627,-0.7602974950238421,0.0020993195871859688,-9.803001243420988
1850000000,0.055591385879334154,0.05748749613133265,0.08012371947300956,-0.6902912049305462,0.0005469235501376207,-9.832524403319304,0.109724972418059,0.08775707392748038,0.05361380292838755,-0.7536374879035319,-0.04454947767135743,-9.831612615040019
1860000000,0.1589206728925236,0.21810762293286168,-0.06308490171138341,-0.6519087003083017,0.0034120770180045908,-9.804044580827513,0.0993035765855898,0.12731544114841042,0.021587595259993403,-0.7389009815818364,-0.02066106249364662,-9.82798936706615
1870000000,0.14125023338589984,0.062204324105236485,-0.0536328297657586,-0.930369987534585,0.0020547239138967977,-9.820226891521461,0.08581252540462578,0.12117843301377099,-0.003695723583589444,-0.742023099593017,0.012328541176204643,-9.854069746083475
1880000000,0.0492073259379264,0.1513066161837703,0.03205670241700251,-0.6798271012553487,0.0460262195097621,-9.777778840478948,0.0524591711553755,0.13745091287068428,0.00020844261659229858,-0.7193510736747597,0.04223807662844335,-9.81353123420508
1890000000,0.10597567635947258,0.15490747777496383,0.09958862172579046,-0.7645699031918285,-0.08799249021680237,-9.853625114497023,0.1143903881489643,0.1265289779929299,0.029245672428281983,-0.7149257603415787,-0.01896821799514015,-9.855251001031174
1900000000,0.19830332054790278,0.14538174963085232,-0.0754799087803183,-0.7422591440257468,0.14144268757618667,-9.761311767684427,0.15510313898247974,0.1326098631324673,-0.011122682283805243,-0.7248953561054646,0.014604480846118963,-9.801184768238304
1910000000,0.27197598408903845,0.1296508277503649,0.104252451406433,-0.6683196868870395,-0.05446125631553832,-9.728410148829143,0.19677891875143722,0.13543242240933234,-0.0028261986906446164,-0.6904719761021014,0.0405147056289417,-9.802769624087553
1920000000,0.1747989261184481,0.24625056056754233,0.01998797965204238,-0.7698914028276906,0.03942214919995157,-9.806429734731235,0.2043252417950097,0.171367062527123,0.038632701196541025,-0.7204749109484916,0.024960039496302655,-9.798083498659414
1930000000,0.30546195306573243,0.22198245786023502,0.026998618632018738,-0.7999762782082663,0.07893089793059913,-9.863472692889514,0.23109843317411258,0.1844467780901256,0.005188651505834485,-0.7451990183726079,0.03742820129358385,-9.822083863764782
1940000000,0.11894119548348228,0.2563741036197652,-0.03692312628484746,-0.5865552510887845,0.05994597588395015,-10.007184771444187,0.2085278210856253,0.18840677525551935,-0.035962512170120295,-0.7194874798244522,0.005826575616217457,-9.865375077682732
1950000000,0.3201218786219277,0.15895446060758162,0.03448706833805099,-0.7494797888819921,0.1102847660557019,-9.758010209422613,0.24045605557330657,0.1981219793963156,-0.013499246716068766,-0.7603636026466927,0.017420921879005492,-9.847901197564997
1960000000,0.24665657492570564,0.17231344416982447,0.005372721209681481,-0.690239350489456,0.05071849342426453,-9.679281333875837,0.25504233631282613,0.1979145114148597,-0.00565421189871184,-0.7315081132686267,0.057988047085782424,-9.781576211177324
1970000000,0.2781382837421062,0.25379563190963006,-0.006196123070364922,-0.8719718354628299,0.06422875226512692,-9.750940872749265,0.2624924038544599,0.2245603561616203,0.015449758131771565,-0.817905333864881,0.061918542473526725,-9.765262356035443
1980000000,0.2782432825481342,0.19310581537833266,-0.0961545648285606,-0.80016631617515,0.02045526026290332,-9.887523549823063,0.2616974930842621,0.23683686614571575,-0.025438234715180266,-0.798891026579245,0.022348524097305283,-9.807231785982442
1990000000,0.21141577583564375,0.18354273409320426,-0.012620853644115007,-0.7058842427311042,0.09438624356110809,-9.808774091532955,0.26449782679937883,0.21205520253923568,-0.030769779672265997,-0.7687254277415516,0.024303437530006557,-9.798187803387847
2000000000,0.31099789586379656,0.12081482302266164,-0.048768119694889006,-0.7159572943051897,-0.056281384258179384,-9.852399199254602,0.2610304007127419,0.17380113782551967,-0.0122698902276718,-0.7194941242991474,0.010108502795068966,-9.838141853180257
2010000000,0.32746104769145146,0.31666060300557086,-0.030769212045796766,-0.796350107268543,-0.033886742950491745,-9.741941304851427,0.305659394348861,0.24845188417448277,-0.030053554588593885,-0.7614538316586607,-0.0016673718947644084,-9.766210899088142
2020000000,0.26447049834145026,0.2779633710137704,-0.019888305443107702,-0.7953308676859528,0.009699631800713284,-9.736906434962208,0.292642867734443,0.27048228537332164,0.004581247399412392,-0.8026350372525414,0.002733832248436695,-9.728616958304281
2030000000,0.20872299586748622,0.23121354036292996,-0.02890611180662777,-0.7198381369082708,0.04772651639571491,-9.807286968089374,0.27703662600405576,0.2668501262305875,-0.0027443440248606137,-0.791017292489836,0.047501972682177915,-9.763133422119065
2040000000,0.2542172342862125,0.26771914636309607,-0.04349467263514527,-0.7236898862096341,0.06974629886511195,-9.777771789484051,0.2976956878132688,0.2383968553386652,0.013559961739101938,-0.7838645553184285,0.06414921040848359,-9.763644635655178
2050000000,0.2922363391954136,0.19494477864867704,0.0594209858024613,-0.7548699727737945,-0.008350168397183302,-9.773440695169814,0.28489605517718847,0.24849520004507406,0.006306678757957901,-0.7588094826698859,0.07724652590814725,-9.816777718622724
2060000000,0.3202218069514652,0.14472156388916044,-0.0010130104365269517,-0.7940966819137306,-0.03922689801815853,-9.83439535012223,0.29168006819474707,0.20597793379895432,-0.01488682657281994,-0.806199678632415,-0.0012979608797034532,-9.775902044474394
2069999999,0.2333464694338368,0.2032828995134517,0.10133487287896654,-0.7658571645829373,0.002893131639266515,-9.615070600847316,0.282780776038144,0.19080697734547936,0.024984512041875278,-0.8056522938429697,0.004372685036545285,-9.755712030919044
2079999999,0.17326470560528723,0.19987780218165013,0.06023489009332994,-0.8561517397768719,0.09930629393923503,-9.810812208424728,0.21393726469412727,0.17141313227760213,0.04976211390970457,-0.8415148023531853,0.02564243328673298,-9.771631498539168
2089999999,0.26696790975479573,0.0666891253765627,-0.07392835171096993,-0.8816858524953732,0.048850403053776525,-9.892843561050148,0.23218699790570033,0.12015181341680703,0.018609499914487865,-0.8051508432529562,0.03212603142462823,-9.793965594309558
2099999999,0.21652356226676997,0.08417229712873375,-0.10143479513278458,-0.7815744025064225,0.08008838481548956,-9.801219523865301,0.23536243765337717,0.11983906798343229,-0.0654461348005913,-0.795266227402099,0.027337454342049882,-9.847941804806123
2109999999,0.15201637606993704,0.254811239127425,0.02790045588743826,-0.8313565577282955,-0.09141534222142259,-9.79804708579292,0.18526234539078387,0.13119230773111834,-0.04171974827853984,-0.7841158449036773,-0.06978434850408795,-9.838692217164171
2119999999,0.24817959858652186,0.13491327637213021,0.01699607038331378,-0.790604172726057,-0.0005460742671469752,-9.832586629648294,0.1956040680690736,0.13662753617140705,0.009674369526316827,-0.7931963331290085,-0.023544296596882973,-9.812901798949655
2129999999,0.1690866235538263,0.004838607366893233,-0.01459666390528485,-0.8527717879080605,0.0374512767821196,-9.929179235413814,0.15780678734511983,0.06702725941468109,0.00814710168222984,-0.829417885740665,0.03273913182938969,-9.833585305370203
2139999999,0.0677633145835452,-0.02489362385711348,-0.04119017923814202,-0.773505522823218,0.13024338663467766,-9.832915684948118,0.13544790761644168,0.034442302792488305,-0.008883054630726757,-0.8183943205658939,0.05374681437880022,-9.85576388895274
2149999999,0.10576382856525468,-0.018234342097468333,-0.01918474003120864,-0.8360320751842452,0.12199164048139133,-9.955655175110019,0.10482153550851045,0.009375511983599844,-0.009980762779772757,-0.7693163948887645,0.10508981794206805,-9.861014037489046
2159999999,0.2088114696024173,0.05484707582297387,-0.016387098650760466,-0.7872905710958761,0.11947321365147556,-9.71205103756265,0.1416164000858181,0.0470355559961711,-0.02234614782783146,-0.7675480164153929,0.11452184363261109,-9.851871505679073
2169999999,0.050932087496286985,-0.007384996716727488,0.028421209860275194,-0.7062748872708836,-0.07231728652856273,-9.724081593840497,0.10450113817502522,0.06464197788790803,-0.01677454086034098,-0.7533251517668247,0.06683206022277446,-9.784732644124055
2179999999,0.02216260327244312,-0.02647221885922761,0.04546143853750714,-0.805187364188215,0.04090687922744424,-9.739694852378108,0.08880246688947036,0.010377248663585779,0.007247636495632334,-0.7600636884673124,-0.030552990166367613,-9.772299072134514
2189999999,0.07621487380508177,0.10473470668554019,-0.06122586523099669,-0.8400415004173837,0.09425750717033483,-9.719791281929291,0.05973501201798183,0.021785268234311247,-0.012564702611933886,-0.7896196076319626,0.010598207239309577,-9.75127826481643
2199999999,0.17872247867911542,-0.006759644522971044,0.04174514343652576,-0.6822103520960858,-0.07009563384106146,-9.778114020099707,0.10613701739656439,0.03148457422125584,0.0006498572142052215,-0.7672263876400599,-0.0154362009233123,-9.767005387568247
2209999999,0.08519032883882453,-0.0037417205078956912,-0.025020557691195076,-0.7921268052954532,-0.10996041282824424,-9.701862928882408,0.08860665487664374,-0.025758160584650882,-0.006870002242907872,-0.7675874236261235,-0.0354468488186941,-9.742890508546648
2219999999,0.09327226542083755,-0.06216631902832296,-0.024687191949590934,-0.6797051755596469,0.055115177503104615,-9.672687771785343,0.040927843529015295,-0.03064428652740115,-0.03383742885450205,-0.7623597075267989,0.03205651921023969,-9.754033573171657
2229999999,-0.046745046155387375,0.030534912508435333,0.069464012592002,-0.8111165044202662,0.12325957663454405,-9.828183342644989,0.007602794857050031,-0.02417809228268999,-0.017739256983099735,-0.778662675873259,0.06285084052077586,-9.763728436843003
2239999999,-0.11102030275858427,-0.10562852459368302,-0.014182527827498383,-0.7211436505658465,-0.07280517701036078,-9.822494708977638,-0.05857098523257908,-0.05737671460491468,-0.011157590287379152,-0.7831781852458121,0.042479400560323094,-9.781444961988711
2249999999,-0.06978217979727613,-0.08794795701130045,0.028548808888332923,-0.7143052147698842,-0.11272497047422472,-9.869451936364733,-0.07564152081979478,-0.06307296035366873,-0.01391839277314106,-0.7450492628543923,-0.030453893162812707,-9.82878826855725
2259999999,-0.07984923184034823,-0.08114507909549108,-0.028205511656627737,-0.685736435948315,0.024049196588336375,-9.84803468479262,-0.08565281436487282,-0.10599163923949259,-0.019177709792500882,-0.7071895172256288,-0.03896336169273506,-9.846976650358393
2269999999,-0.14440297029936827,-0.06612597350774133,0.004475268010582831,-0.8340665723365651,0.15976354297592033,-9.807490421227506,-0.12923114455591772,-0.0825774948323991,-0.005110005683383786,-0.7318311707612029,0.01216572370207911,-9.832608065211472
2279999999,-0.0966498549668002,-0.17719243288110326,-0.08982204294359952,-0.7691570753554993,-0.04292940907290296,-9.823160156789507,-0.14840351120931955,-0.13234596730171116,-0.036662104883757825,-0.7256971410204103,0.030181876964563575,-9.823527770261592
2289999999,-0.1556779175556456,-0.22086479855320507,0.08889484368630368,-0.8258535814244395,-0.011291407396410552,-9.769496991004543,-0.14778233672845564,-0.1923301947962404,0.006041017768025066,-0.7706475162779834,0.029756788889698058,-9.79732775619542
2299999999,-0.14942438242511413,-0.20368044522274598,-0.06526837843285707,-0.6766805049442833,-0.056054919421608305,-9.641370329667415,-0.13183579995794206,-0.15751628424169867,-0.019118241387641077,-0.7205763732744324,-0.02998850814081712,-9.75640230066625
2309999999,-0.16962259495610915,-0.14446719334078723,0.017041827238056653,-0.6818753854426416,0.11133250373832153,-9.83966592532624,-0.14616702975592566,-0.16026819108896054,-0.029974147105286727,-0.7223016330125551,0.03348896076777537,-9.769042100632934
2319999999,-0.20116754687014343,-0.1618994007736341,-0.109813403280206,-0.6813037040540136,-0.03922328805185285,-9.714231432692102,-0.17029977606861083,-0.14636130647387158,-0.03154808529522553,-0.6940540193790785,0.04748070930107016,-9.780482173023813
2329999999,-0.2152566212950629,-0.09553943246867246,-0.06815736809240591,-0.8261571876538673,-0.11762513422116275,-9.866230718805866,-0.2210159738349425,-0.13317919277206358,-0.05298820952833807,-0.6918381158816074,-0.014646719352774989,-9.786969079422496
2339999999,-0.10619608745578188,-0.16659341935070374,-0.04779676522966973,-0.7566817085643696,0.14422895377397105,-9.912974774696362,-0.1565942739546952,-0.13773891735019944,-0.02980475285397315,-0.7420800816337606,0.01923471250328517,-9.818207266850289
2349999999,-0.14409948580871232,-0.13015560151887234,0.0038093141759631306,-0.8058020659017664,-0.08569775788396351,-9.769526036667697,-0.14690572001804825,-0.1385067733278076,-0.03331831660434255,-0.766208360545288,0.006906337436993003,-9.817464143256169
2359999999,-0.06326710244146432,-0.18508918297880544,-0.0476789963492897,-0.7373492764674929,0.058617718629961124,-9.759495257739767,-0.08810903405825571,-0.16901222100898186,-0.04628150594622333,-0.7761882345281651,0.011062467459410141,-9.794978292843968
2369999999,-0.15356783171983315,-0.13558623458980323,0.027457802763565547,-0.6494750789077022,0.013231020804886957,-9.825103868203028,-0.12309182955794551,-0.15777089038160214,-0.015409795593618252,-0.7311209871470952,0.028075787391430882,-9.823199060927083
2379999999,0.01875503840273343,-0.1571526940944997,0.07992883609510099,-0.6552686068209228,0.0422620130223255,-9.737598125867061,-0.06727648069760381,-0.14715800355523412,0.04058733387047121,-0.6662619797553015,0.012500522494097607,-9.78611625547119
2389999999,-0.08779742550673825,-0.14427644904065404,-0.009492909448243686,-0.8061191734306195,-0.01937005152567245,-9.830288171648855,-0.08839477681753531,-0.1571092673247137,0.03688045933095073,-0.7324733308860908,0.0027184152301263833,-9.768622900079194
2399999999,-0.2681850334445514,-0.17940171773500824,-0.005322133531753861,-0.8682558946286097,0.17364863972552716,-9.780117712236313,-0.12001766300576454,-0.16110707747206202,0.02594850950040509,-0.7553007122182678,0.02870423459657034,-9.799351913426737
2409999999,-0.0975852455330514,-0.14949965828706097,-0.05052530313266622,-0.6795227336677074,0.059363088517134885,-9.826179615930906,-0.11518943766832607,-0.16682629511940164,0.040771392585739245,-0.7545843545580153,0.021023829039726438,-9.815956989633852
2419999999,-0.16905749348028182,-0.17435626792714976,-0.016459452702039544,-0.660274185807467,-0.11329846621811385,-9.83374045494326,-0.1277728933024731,-0.16195879777025562,0.00837073257546024,-0.714604773470727,0.00633943481904432,-9.788865601596317
2429999999,-0.15600349449233744,-0.19110928861021031,0.021494938695774964,-0.7404733361484195,0.032167003435950234,-9.836991376327116,-0.12155790780983025,-0.1983456168935169,0.0261273060083074,-0.6745266703317581,0.042522616199383814,-9.767526572918959
2439999999,-0.09956564212124897,-0.02723578961030361,0.012871860794057392,-0.7528157213166746,-0.07534113169526961,-9.732493682049116,-0.1176366462068884,-0.13709100768204033,0.03831341768914928,-0.7154711230561944,0.014760709623885742,-9.762739257775362
2449999999,-0.10804367504869318,-0.1974768964378077,-0.0025975699562390472,-0.7422861821894609,-0.05990020951589973,-9.845659457875657,-0.11488374746874627,-0.12487828258871735,0.01698044658829839,-0.7313651988784432,-0.018052141700625246,-9.7391913304133
2459999999,-0.07879021818368456,-0.11516044238422825,0.02136432004846856,-0.7579960977943563,-0.18843556313288104,-9.601693552228358,-0.11327573607607987,-0.13354797642770605,0.0064980054913135726,-0.775342009119557,-0.040261714861304816,-9.70687505345738
2469999999,-0.12256663044067376,0.041052473900308376,0.026518700653252847,-0.8161209560317515,0.15474807780265712,-9.691155832941941,-0.11452407694060791,-0.057378687440902465,0.02013586400028776,-0.7801457581377707,0.026196318645037044,-9.727047219862254
2479999999,-0.11941411198529482,-0.07178067801110638,0.06156960794552222,-0.7772648285590776,-0.02919895971736233,-9.742101716474986,-0.08347912650659847,-0.06221718930428784,0.030940746114153594,-0.760090648803227,0.04069358205843649,-9.736704646679797
2489999999,-0.08779060004297237,-0.029874173321141326,0.07846571172705707,-0.7405454361133826,-0.02408540218145816,-9.722149294953418,-0.09131036797759108,-0.05465565135630387,0.06647177920369218,-0.7033813607510077,0.03616787091263391,-9.722541328782304
2499999999,-0.08920533257570318,-0.06882233552516277,0.14083239054269103,-0.8018044918366272,-0.03108038349128069,-9.717594630121893,-0.07866699131111012,-0.06452013522004474,0.0968109793044805,-0.7532598866455741,0.020874129940504586,-9.752132841698963
2509999999,-0.01570038215012771,-0.023607566401168588,-0.007867684249443419,-0.6928771005180883,-0.07637314381575383,-9.756104168053982,-0.03965602634897646,-0.06050393431159647,0.05493263023051566,-0.7541484968209368,0.03273835309610128,-9.750645078057309
2519999999,-0.0014984592759282843,-0.11478842857137062,-0.02744740440772094,-0.5942601208804864,0.02659997845326359,-9.912306045173056,-0.030629827997794474,-0.05638413520431616,0.026600601075973895,-0.7032210478758938,0.02251779541218537,-9.789144182139395
2529999999,0.07822269299296031,-0.06466601589243892,0.012623156339825036,-0.6868343154394599,0.032916606397773426,-9.7678810449574,-0.011120179965825289,-0.06796414882973258,0.018153989301694966,-0.674418559750155,-0.0015222533462174374,-9.77363145003162
2539999999,0.030813660176189677,-0.04396712287399584,-0.1066725940716228,-0.7078242091283674,0.0006829620195094449,-9.646768573929112,0.01725676565609219,-0.07775384786125991,-0.04265142742941332,-0.7223137310819574,-0.046371558797058614,-9.728305412779441
2549999999,-0.07310155449824385,0.033851478033420535,-0.03864535511247318,-0.7462826686691737,0.05787024340371845,-9.631371104256315,-0.05095926854125486,-0.020149077365490507,-0.019331955740278697,-0.7230787807690751,0.0003781556977674634,-9.693287061583941
2559999999,-0.020348008038463275,0.009167567398134051,0.026443929573941476,-0.7305257978501563,0.08246517650456617,-9.684817050883177,-0.04349015680258771,-0.017595936647810805,0.013405793169447002,-0.6905189311729003,0.014724942927030821,-9.686187727956082
2569999999,0.007157116187365316,-0.03541421239439905,0.005293148076302472,-0.8468530289837052,0.11092509032827158,-9.633307566686918,-0.008473756057671466,-0.03209850369852584,0.012418625959501762,-0.7982245344808944,0.031622598581702514,-9.651146226337316
2579999999,0.09840785091604407,0.00982854337266753,0.07115836819616525,-0.7739577610830726,-0.02632577685884314,-9.735759165046748,0.003642880602653699,-0.013622419417321594,0.026029367033605654,-0.8070774810805319,-0.041857523249977144,-9.717816558658326
2589999999,0.0026467527634617023,0.05970986833525553,0.07678892305909947,-0.8464492334144111,0.015509204984751113,-9.703075218695442,0.022972105089933702,0.025601719690947974,0.042554428310752526,-0.8139756333348432,-0.03188086930314971,-9.746766625349576
2599999999,0.00661127493149,-0.023146584525578377,0.041714241620665685,-0.7723582473470559,0.04277091668631249,-9.675909579463736,-0.002605858624105875,0.002768898646727233,0.04574808555204448,-0.7584224863783506,-0.022462295096511466,-9.738017492445644
2609999999,-0.005501844550640983,0.03574180160811365,-0.0132595547850559,-0.8347217370659111,-0.033303752698599226,-9.665895529483667,0.02387335255019848,0.029233630799910364,0.011450893173972382,-0.7517568290207399,-0.025798018622229607,-9.682346354151147
2619999999,0.07249931591288816,0.027489892141210975,-0.012730959424020204,-0.7399751508165254,0.01071449545689627,-9.791905873845923,0.01537034430628397,0.05037448287722067,0.006871689100765756,-0.7162550513199348,-0.018067199694740382,-9.699197734300066
2629999999,0.02519646233932734,0.03542978270005866,0.008906103969109267,-0.9041409604125744,0.05785930656855957,-9.697289441860047,0.03501411883364228,0.0470103731452594,0.018991710518251277,-0.7781008573182107,0.025650263387485918,-9.720406682628642
2639999999,0.030400959111265106,0.15705452476425752,0.026388299455955402,-0.6920383038132769,-0.03407038774108216,-9.659175872676864,0.015111752455607488,0.07489345397074737,-0.007748939221415716,-0.7567210445040737,0.027474473117507846,-9.708841204250223
2649999999,0.0581260093975445,0.12256302685286152,0.10078647855324598,-0.7194815222717861,0.09109046426462244,-9.796001916628141,0.04615193657564225,0.10601756701267084,0.033553979466731235,-0.7580985597298502,0.029899258665184586,-9.742148286552414
2659999999,0.0289908466281213,0.05637544992279607,0.109812885132144,-0.8846042599965853,0.07391025798555977,-9.734494539879387,0.0477769065076771,0.11400683589544765,0.0626717817229354,-0.7873542124793762,0.05602032341070928,-9.75528001339228
2669999999,0.09774690784175112,0.11819188731561506,-0.059001019815996,-0.7204051352677991,0.07143549550201415,-9.63972819693727,0.04906666866426118,0.11437216917806838,0.029637913383732874,-0.7329980388829408,0.0858062559028323,-9.701547588229953
2679999999,0.0844667456390176,0.19140616269803137,-0.04314745130865319,-0.9836726633704702,-0.12042562512469775,-9.73423958710981,0.057178516379016615,0.11044700716881262,-0.04377806391782746,-0.8138821083670205,-0.007712301301023183,-9.733459343850345
2689999999,0.06475653249843749,0.2638495680138681,0.0254250396258053,-0.6819370967524708,-0.013093334301458131,-9.596921366901942,0.04878200047252506,0.1619277505959545,-0.04108769661164975,-0.766973478003677,-0.05424066861720954,-9.702762237361068
2699999999,0.0478836183632469,0.06148328385921258,-0.003798253066819874,-0.7935327641797184,-0.035660342213654564,-9.748105810377549,0.050161765188060675,0.10541401291848125,-0.0038049818126538165,-0.8148741371900015,-0.07327988043887246,-9.703841247666745
2709999999,-0.00172652047981358,0.053869950770905214,0.02349274970095639,-0.8226644215401888,-0.0908068184827472,-9.683561151779276,0.044248373695058026,0.0511145887099556,0.02512759942692698,-0.7870407546825527,-0.07769649042851404,-9.714922385504334
2719999999,0.09287966679235662,-0.02527103877270276,0.034603496241633044,-0.8256571504333532,-0.14585055515671003,-9.728411654855853,0.04624852932847973,0.03613330715131712,0.014896397114971292,-0.8047472707503665,-0.043519930756566655,-9.709072613729091
2729999999,-0.00018951029798853353,-0.027952082156384492,0.09044787574223764,-0.8111221389001564,-0.045599434077694706,-9.652222564905896,0.045920714261426875,0.03504705323640554,0.01633896529887191,-0.753747900269042,-0.01808747251250742,-9.747991003583355
2739999999,-0.11578742733605536,0.13126399807093142,0.0011632645787416629,-0.6809305691315949,-0.07892078361401257,-9.758999366931615,-0.003071847766083463,0.09263216131669935,-0.004020979672903027,-0.7057359532597337,-0.010603252351572025,-9.731392255091167
2749999999,0.041625575754122915,0.1687963948687618,-0.06759819994870273,-0.8335763976747326,0.03265853005963555,-9.673873465353584,0.022396289819900904,0.11550880992735321,-0.052055347602453464,-0.757117247872549,-0.006463102368410884,-9.743127654105594
2759999999,0.06420926043307641,0.22344538790142698,-0.15813159914008112,-0.6067472892945192,0.09030934637017365,-9.650376727942856,0.04982292221463648,0.15434698515585035,-0.10534548712156255,-0.7058853467183235,-0.012007216076851904,-9.683181520772134
2769999999,0.021124987431413514,0.03771874483674763,-0.05496840177484843,-0.8612694125237492,0.07060052307512386,-9.635996987222475,0.03586634309918894,0.10725168307795897,-0.08307668475545939,-0.7358900208207624,0.05134059071265762,-9.678249434180639
2779999999,0.14028025161441413,0.15831053499146003,0.023647064704233167,-0.7393166599132361,0.0558724593889534,-9.596284465245645,0.07214947079358495,0.09256677344111991,-0.020959594285470826,-0.7765813906325195,0.04861821810130754,-9.649738607202032
2789999999,0.043767555539312816,0.12467434371627868,-0.06321683931262267,-0.8012216132184611,-0.000451183463470943,-9.751214955638286,0.08842301739525152,0.10697841827392982,-0.027868593380578517,-0.7955099327777049,0.05203650107484993,-9.713689870528471
2799999999,0.0786077630364682,-0.025335545064272824,-0.01377969355207887,-0.6617078610530364,-0.05334562625399603,-9.872030311050429,0.03377917890120634,0.10043343260383308,-0.018617724989686314,-0.7484446279179818,-0.013457419313984573,-9.752243019731633
2809999999,0.042899621121628866,0.06088885954334593,0.07997119984333588,-0.7393703917213609,0.050974563394205086,-9.813019995605758,0.05860211632716292,0.05649278114293867,0.014363250464034241,-0.7348060136818013,-0.025314444797725814,-9.786664268903495
2819999999,0.04823193245862091,0.03980946448313634,-0.0312224605013405,-0.786862005888069,0.10354896373439357,-9.7431318920003,0.061348310710561134,0.048569425821547,0.0207705024529797,-0.7828018802620663,0.03984660868777109,-9.772505679067093
2829999999,0.04050006256916961,0.11299263398967824,-0.0312789174800644,-0.6796322144456276,-0.06069025993853815,-9.6652660927467,0.03859128602341086,0.08599886988153657,-0.020072956783633644,-0.7378865522395962,0.001069605984550314,-9.71666542893053
2839999999,-0.03941593605384428,0.04984382798322824,-0.02454084333498659,-0.897997980722665,-0.14147595570871704,-9.767356227470028,-0.0072618302198627915,0.07002283214227349,-0.030459884225369355,-0.7961772329149827,-0.06316135380248411,-9.737483512239479
2849999999,0.005318532394058037,0.06042921323480503,-0.01630099168494603,-0.7228384569701718,0.043251597620701125,-9.680172138501687,0.016287984889931103,0.07135547714316087,-0.05775055135216089,-0.7878682957016229,-0.040218449487288976,-9.708628609575792
2859999999,0.01371209690516035,0.026171128840710448,0.003515520657424392,-0.7188479627736227,-0.100428117327049,-9.746806331316348,-0.0017186583757266636,0.02758739437650283,0.010352984221701956,-0.7555891272156574,-0.00286887713255838,-9.743605652852022
2869999999,-0.05917498323914218,0.10984133664547867,-0.03891630212252741,-0.6463228144314027,-0.03538174016970064,-9.660006852532373,-0.030179861918894893,0.09357982506821538,-0.006701504154200812,-0.764661756940776,-0.00041996650767306236,-9.73235127279638
2879999999,-0.049787865632587094,0.07389652941661554,-0.053599105132029166,-0.7868536978169247,-0.02026002376330318,-9.523346444124783,-0.0320188217373704,0.09545879761628334,-0.021513391127886382,-0.7953938606677627,-0.03356419082905115,-9.692410227002908
2889999999,-0.04775456944936135,-0.019801505952196874,-0.005362778592672819,-0.877537536019891,-0.1170485809961695,-9.651919794530196,-0.0404540786821964,0.047123994526554226,-0.002436234891674467,-0.8224639760728034,-0.07452462022977896,-9.660211084205313
2899999999,-0.08359739573165502,0.1529933190517509,-0.02337037464631351,-0.8641469869736622,-0.011165387645647366,-9.783960698661563,-0.042565861575826335,0.07686922152835388,-0.026150168503252566,-0.8103784968083271,-0.04140856918715129,-9.73947693957364
2909999999,-0.07691096493066533,0.11829404733513685,0.06503869539253862,-0.8521198097549154,-0.06256102589651014,-9.680427941726235,-0.046889177108066,0.0911399384523757,0.01804609139674668,-0.8226667571990525,-0.03352172616761448,-9.716891648672384
2919999999,-0.0031635764852127393,0.11510601257952643,0.03874272032237761,-0.7229722470101984,-0.018923428946802004,-9.629965594860591,-0.025658965924996235,0.09254290534640695,0.004913837343824166,-0.7393265078376056,-0.030838579266417684,-9.692803765773514
2929999999,0.02274308019726383,-0.047004959659442076,0.022150249706620113,-0.8262805351841266,0.08481620736460577,-9.827394571369021,0.0012489209887274148,0.0480610636879075,0.011506237813329991,-0.7526244361958268,-0.018943760947901442,-9.7333314629217
2939999999,-0.0238926008706523,-0.05230882338474149,0.04676037921279301,-0.816599067107487,-3.119169279926226e-05,-9.724248195319342,-0.008656469587278736,-0.01593761111913327,0.06475838710499077,-0.7400273257862618,-0.032965228739239086,-9.693160660209722
2949999999,-0.003506895518594691,-0.0747156232148073,0.17387093782321544,-0.7374041744170229,-0.0685662898314699,-9.747223768684512,-0.032380624175173504,-0.038819519583755666,0.09111772110636064,-0.7837594868004055,-0.06832596821508688,-9.710229587082846
2959999999,-0.03430226665191635,0.06861525064207044,-0.016553618370311673,-0.7269223189196091,0.05524878202471076,-9.725958909018894,-0.035034558330578815,-0.008573026637964384,0.056729080306549606,-0.7806951717300873,-0.03333709347494737,-9.746323138193494
2969999999,-0.011586058015831097,0.13364123696915275,-0.03995633458861644,-0.7921904651487642,0.08807269910523892,-9.693053054434621,-0.03239091531333706,0.024062484001668615,0.011011136298033564,-0.8000735171628413,0.014189171604605635,-9.752886299734437
2979999999,-0.04008306288335143,-0.027635966021999997,0.012061933599414511,-0.5994575028004284,0.10558046883214293,-9.74745419539332,-0.05369672649841015,-0.009693413129126308,0.004985968773789954,-0.749047714059294,0.04492107065608965,-9.7705351688906
2989999999,-0.03516520309214104,-0.11302626103398383,0.015284189767291685,-0.8013237027648139,0.01175814815691535,-9.642958255112461,-0.03733098415007678,-0.06996614595719759,0.0073889683145011865,-0.7199316964238361,-0.006121131445858548,-9.710032289262038
2999999999,-0.15985017824015507,-0.0680699778988215,-0.08127416851879946,-0.8123694024923793,0.033012454388205555,-9.718771932920244,-0.08104593967262533,-0.05608907632736157,-0.040454700319251045,-0.7535640961143102,-0.01475374220783739,-9.746803080030444
3009999999,-0.12922919146510892,-0.06659402381021173,0.06578363920038532,-0.8026716104656146,-0.018829326933319075,-9.740890185406615,-0.08592446141414578,-0.06779436025051482,0.0074774406450398324,-0.7585151387714485,-0.012477379203057215,-9.745818535488532
3019999999,-0.08841001686872349,-0.03311180641037866,0.11297773835121774,-0.7364278126448586,-0.05907177646018355,-9.737462943451423,-0.08348451725219715,-0.07104012547235246,0.05561752761300612,-0.7939685695100369,0.01096027973107756,-9.730651263205013
3029999999,-0.09608659822236136,-0.08045478957484087,-0.031765269703616865,-0.5901274553296952,-0.033015204383292834,-9.819521316604483,-0.11408721443931621,-0.0778573400789427,0.03963967511685536,-0.7133903225646544,0.007667964096993567,-9.758856702770094
3039999999,0.08397606324505336,-0.04313773932534676,-0.014603768464952352,-0.7149029121474221,0.07751995444352912,-9.682576186491344,-0.06820476283059568,-0.05026727746562363,0.0010694818616515354,-0.6805450319281221,0.045767756294626906,-9.70476337025256
3049999999,-0.08480020412330391,-0.05058427561610852,0.05905923178853695,-0.7938290780303151,-0.0654929561779824,-9.660009736748348,-0.058262292062064465,-0.03243833181848541,0.009865045702583137,-0.7201195751745663,0.004408658093589243,-9.70790083752986
3059999999,0.007265208424631658,-0.08954751504149036,-0.010698702721726083,-0.6885232728792904,-0.046534885526903484,-9.729217414681877,-0.03262284831835247,-0.036498487940053975,0.006438471759218545,-0.7336201749424612,-0.00461538796917322,-9.704787337339464
3069999999,0.04304632394718222,-0.11221533759842181,0.035392884281059564,-0.7337646802526634,-0.01944093458614921,-9.80254016112971,0.0033530584632069753,-0.059298866199710414,0.0016598289822151646,-0.7078653161147388,-0.032077531998260314,-9.75388266010424
3079999999,-0.09237592340320366,-0.009191081068202267,0.0003008970463598132,-0.663517419918828,-0.014876088622631834,-9.633520013619625,-0.04441754860694036,-0.04858366440476883,0.001227027899073598,-0.7445563638571805,-0.017467068146919354,-9.709603522717206
3089999999,-0.07814329945976867,-0.09113736329870775,0.0649831764836421,-0.7544259512775822,-0.027105709842157696,-9.88461710143399,-0.04230811872485597,-0.07463695745072746,0.04535085981547149,-0.7544785750766801,-0.017912864663561723,-9.734168376089992
3099999999,-0.005740159129154175,-0.06495949421749903,-0.021429161910808944,-0.7392961831565478,-0.17240189509224985,-9.924077933775909,-0.036902512041829504,-0.05804525445998282,-0.0054652026654465734,-0.7458063143609539,-0.04574954072059912,-9.82629110618945
3109999999,0.07368679857965933,-0.08612258921633704,-0.010529034738761258,-0.6774181867376102,0.04965588673935869,-9.810576695329397,-0.007043052360740234,-0.09438918333969229,-0.016903691176705142,-0.7208784248727068,-0.029500048158169853,-9.857464804642632
3119999999,-0.0245085947279736,0.020550336608185137,-0.0328084299863948,-0.8421687280056469,-0.12908206368671274,-9.752295745371276,-0.017989782664412313,-0.08006960624593396,-0.029413958264371168,-0.7441904709625318,0.0012362164711437196,-9.760618563203117
3129999999,0.0016025123458800715,-0.134192474881455,-0.009339448182051843,-0.779910935417762,0.057734048624294765,-9.78564673862719,-0.027109038082812707,-0.11920527047911192,-0.026742033415667905,-0.7739065584302629,0.0002904517924145738,-9.731918512514184
3139999999,-0.046669513686480465,-0.1434598846634505,-0.003483050778342503,-0.8299478350485,0.03691948503274764,-9.754709729450001,-0.05969770827796367,-0.11083539981118419,-0.030459998612495848,-0.7558266766141688,0.014511518707538335,-9.773686212853605
3149999999,-0.12243909392429038,-0.13366499866803322,-0.012613243499753898,-0.7354845603728951,-0.06411834105818999,-9.816446013030067,-0.07423274714907047,-0.11567678879166306,-0.03564414628609989,-0.7299633430156752,-0.021801519566122356,-9.799993375655077
3159999999,-0.008853509211394588,-0.06858697176960081,-0.15624483961249094,-0.8200229793254042,-0.0305664590958957,-9.73426186188257,-0.06663468669723885,-0.09931245132917414,-0.08893914722266985,-0.790249085724751,-0.027970579918808216,-9.783118938187236
3169999999,0.006220540938670617,0.01993871415961225,0.032318555824484486,-0.8131754118077117,-0.07468795753761277,-9.745471021780357,-0.03935794943223463,-0.03707559520289086,-0.03770098627867454,-0.7669346288540988,-0.010822588715480096,-9.747482670481892
3179999999,-0.03334258171784894,-0.025356433742763706,0.03323694133350367,-0.6477286677630969,-0.13721306713787113,-9.781133997138523,-0.04823300066211245,-0.01788301549284793,0.00807595819459652,-0.7056990437812809,-0.028879719960576474,-9.754370718753277
3189999999,-0.012607374440904498,-0.11796324695184912,0.041714246186994944,-0.6694935483454013,0.00520327753162278,-9.609750231417626,-0.04410141241277117,-0.05844547629303007,0.004105615164030369,-0.6631892176988964,0.00589064098770215,-9.707400247066198
3199999999,0.007044254081707004,-0.15085017009368756,-0.09097065533773505,-0.7790574803299862,-0.045366902479074434,-9.751649062234748,-0.03643376665703368,-0.0702347714809009,-0.03891007649989773,-0.7094980852452232,-0.023881880435295787,-9.683387671159789
3209999999,0.10070727401712261,-0.004789322547599555,-0.011968409635139064,-0.7040691577541466,0.0037048431965190295,-9.673932728343376,0.011716698832963349,-0.06335678421227378,-0.02794035658655927,-0.7277292169035271,0.014425884593573182,-9.69691785346604
3219999999,0.05032056922472616,-0.06505300709149373,-0.026257845439750016,-0.7743001648142419,-0.05318800877080133,-9.645571598850958,0.04489872759985723,-0.05186462146278859,-0.015922181762908466,-0.7330545913585929,-0.023886644740690726,-9.704682514536117
3229999999,-0.013068655682210231,-0.029497296964804607,-0.008582787773514927,-0.9439311648907889,0.031253274567282927,-9.741585528796959,0.017033676673311078,-0.03410652397920917,-0.004655776592101626,-0.8053454100003608,-0.04202606424409005,-9.746912457579615
3239999999,0.029096812598343697,0.003800101568157882,-0.01576080953922803,-0.7298118376234,-0.029352507206759432,-9.80247483527965,0.014153406438769188,-0.03832454586049007,-0.01963672932688476,-0.8003786283794815,-0.004285503831915462,-9.747286703710811
3249999999,-0.0629520395733628,-0.040197588945586206,-0.013133280698048987,-0.678683514166294,-0.12138607620943073,-9.714708953409039,-0.026053988194931106,-0.07017910076726187,0.007012320985539831,-0.764172123949797,-0.008736442861225383,-9.745795625290866
3259999999,-0.0058587348476435664,-0.08785797472378616,0.0318610543010303,-0.7801538352998789,-0.02621994332071765,-9.833222925526517,-0.02739738982284996,-0.04429496157187939,-0.0013037746878652263,-0.7241589466735459,-0.007632181604973852,-9.724550712663335
3269999999,-0.012759394607677773,-0.030855739536701045,-0.1611072986754253,-0.7731883574356692,-0.01948748659351912,-9.710396119713407,0.0002203285101957009,-0.04794755923997355,-0.044531987781377416,-0.7440136110828907,-0.03874576766375997,-9.729187139143335
3279999999,0.050919749848510124,-0.05118515075729037,-0.07256864897505681,-0.7949261011889382,0.11894000141936836,-9.760527232499747,0.021905460367750606,-0.03902169291386664,-0.08123698168736727,-0.785443828840863,0.026767091597581106,-9.703190033508124
3289999999,0.08412736565974055,-0.03711326466231999,0.019668670969936044,-0.6827829505968299,-0.014376763694153333,-9.732319783333864,0.04524786671894484,-0.049277703757365496,-0.05420050841800118,-0.7271745357672538,0.01854172201233779,-9.706199904907853
3299999999,0.14045430454062097,-0.1644450912247053,-0.10002885213735475,-0.7993122342602517,0.08040702153083495,-9.656727750396456,0.06289747884710047,-0.08670985199033225,-0.025797243907582375,-0.7581901762783605,0.04650579754791101,-9.676170596033266
3309999999,-0.008076712284431388,0.006358911296818374,-0.08867732251414086,-0.6108564228395557,0.029452569962259686,-9.77700846852558,0.047994455451643464,-0.06334124798900859,-0.03739843126436935,-0.7188868037195677,0.03775287280045725,-9.719907629485867
3319999999,0.05162834119949027,-0.01938240414480327,0.07131591393806905,-0.5534918555876633,0.07027170477585776,-9.814665307162947,0.027442159167314732,-0.018987569965206733,-0.007090766046208782,-0.6746286163222428,0.05056828710937239,-9.754009285204434
3329999999,0.05603830445964605,0.04692996413569306,-0.011076282097349567,-0.6881239788698436,0.10432911853297146,-9.816395122233153,0.017860923227322842,0.009966652400639923,0.0050979759457162694,-0.7112229436342234,0.043096042668315175,-9.760078260345892
3339999999,0.02502374367515251,0.11821196576996242,-0.07646406904012575,-0.7988565974864268,-0.007263745130031448,-9.747423678699258,0.0428344080530804,0.030043553724598236,-0.025237950453548322,-0.7306628253536465,0.015084390136392851,-9.763367710370492
3349999999,0.015652912932917866,0.05131293245892154,-0.006915468688021886,-0.7589731908180073,0.054968656711349345,-9.62250009629201,0.016311539366274747,0.034846198488078586,-0.022874714805163388,-0.7019039487471933,0.015872755396675424,-9.741537811765625
3359999999,0.11128686258850717,0.048426539838130334,-0.05856052724031754,-0.7187844312737234,0.0728488085871463,-9.831122317259805,0.045490777663540295,0.024536579811037514,-0.022712537377245705,-0.7192877106732176,0.040509500646550636,-9.783280537685993
3369999999,0.07850271689615117,-0.010418831323126891,-0.029011331996015455,-0.7242337558360039,0.021152054242687922,-9.828999044559918,0.07663991976134628,0.010022167430366873,-0.01743739370419295,-0.7310825316659808,0.03204493341125068,-9.791971042723322
3379999999,0.021859477573323113,0.01442301708180541,0.05029559569711163,-0.7675016303145618,0.03048053976623099,-9.796218623531143,0.10014071752010652,0.0029828923006731236,0.0218915053417403,-0.7345375264557098,0.03149831291355111,-9.77128543617277
3389999999,0.14234743227172245,-0.059675809888839484,0.0473080621978649,-0.7876612570835373,0.01778740954355454,-9.826382425899736,0.12220462501879076,-0.0282664506045772,0.023635166496465555,-0.7849466443983301,0.01810031586999462,-9.80534662896861
3399999999,0.19348126180740122,-0.05278084967780074,0.05444950684929985,-0.7646453997470457,0.06986956238548972,-9.835375658953545,0.12136658346254685,-0.043110574931298926,0.06457187350878839,-0.7796042223097465,0.049039346085072114,-9.844560793539387
3409999999,0.042669870030441384,-0.15757177690323054,0.12719542426036506,-0.7257815767111103,0.17050085324874503,-9.698006187204186,0.0883579093023675,-0.05820591744547781,0.08566087473849424,-0.7172304138756913,0.0653308457879701,-9.829834772977144
3419999999,0.053802034068954604,-0.027514305931474692,-0.01659029417137409,-0.6822386272405524,0.03923279708619886,-9.740481574627909,0.05837188488826413,-0.042844628321325545,0.03790444796965275,-0.7243838246619358,0.08443144444679412,-9.753681384048017
3429999999,0.08104453467341141,0.05301902950006691,0.024237263196900075,-0.8158693472257513,0.0454443301862962,-9.84459248957629,0.07800901999989607,0.01975985263217708,0.02584843565218948,-0.7686658076605162,0.083622566161456,-9.796025655251832
3439999999,0.13614695389921522,0.06757642244678749,-0.054831269024774074,-0.6130984266863524,0.0015933556721048694,-9.788218961873444,0.09308449658312141,0.07263308442064101,0.006648451138065892,-0.770608234079811,0.02877848828403054,-9.8233138751319
3449999999,0.16286011799967645,0.04141865215811452,-0.058638199159297855,-0.815098983294468,0.01762778814795047,-9.768601913871695,0.12934017734853961,0.06667106155132216,-0.016129105962818805,-0.758477478510325,-0.00936363878790002,-9.77065976902259
3459999999,0.12854978647063783,0.07275938328172515,0.018523826644323595,-0.6842932562435824,0.11013159030321512,-9.862028254382338,0.150701449960789,0.08357427864286424,0.006239078359255071,-0.7327601299851361,0.05958190009054259,-9.797006417775671
3469999999,0.08256565173537435,0.033864429926515324,-0.0840868729872061,-0.8109304578542991,-0.029863143744452366,-9.867426151076527,0.14047439698228362,0.07276566900128563,0.0001247033497123115,-0.7374685259042606,0.022986666791937234,-9.847791463637265
3479999999,0.07507656573814958,0.012328752428670701,-0.11538622164566995,-0.6827670368768556,0.002573881450006227,-9.818723757563504,0.09517240343551644,0.06495855596296525,-0.030798854836632205,-0.7293324541441597,0.04781054970797595,-9.813172152435707
3489999999,0.09336475895558081,0.11852434167380899,0.0032707921548105687,-0.7817896699150076,-0.09555385366981967,-9.795315965616616,0.07168982837814686,0.060914556894525226,-0.01663459507964223,-0.7345034865677549,0.014181898401108891,-9.795610503762449
3499999999,0.007101356561195926,0.008302051534034773,0.058633339074370995,-0.675854980313267,0.04416552906852014,-9.768732413049095,0.052974736591057746,0.06838402817436295,0.0056006018063310195,-0.7071816201295886,0.001136199206140981,-9.797416489490326
3509999999,0.08131988157780723,0.03281182453397293,0.021283040581850043,-0.7376340569723302,0.003039020241497629,-9.804095175078004,0.038854237713504255,0.05925784377547977,0.023398682123660072,-0.7142880704345425,0.018273117021807353,-9.772280621635192
3519999999,0.09019757452812352,0.06226136857600989,0.05192186992514548,-0.682696510982919,-0.03495484476039458,-9.772955075125063,0.059184438809837356,0.0742147325902309,0.035368843710594865,-0.72787846444617,-0.011518768932874172,-9.741112744165443
3529999999,0.08815653090812449,0.0587121627645256,-0.020288636916053482,-0.6518950005477615,0.026912207420499032,-9.851487391349504,0.0854014448287542,0.06916642224349158,0.025762103863708523,-0.6929416843689576,-0.016589652636469127,-9.787728134389269
3539999999,0.1184732508183515,0.033562439846782435,0.00877822692385146,-0.6855459073932624,0.007166769228101474,-9.78424018645742,0.06942636560151622,0.06801684074076703,0.004879352100227299,-0.6797087996904781,-0.002095397331429145,-9.786141666367422
3549999999,0.006365666832636934,0.1862596564301912,0.005877062077476568,-0.7023218532745344,0.1337386065245162,-9.718052130029285,0.04957330476251196,0.13327422194801275,0.02762996914818107,-0.6707852510148871,0.02747681619636121,-9.746717929940482
3559999999,-0.02358149360036739,0.3278154502445811,0.07423615318100103,-0.7977182474280781,-0.0036780441161326158,-9.822789213113541,-0.010895905765092546,0.21814252259779446,0.014977565948780233,-0.7035383822096125,0.053439048057688704,-9.77311256664639
3569999999,-0.06836247367548143,0.22334124474760197,0.07222223281558587,-0.8183652928527729,0.09793784980197308,-9.802117895826193,-0.03446767330705072,0.24854200298664586,0.03544012918985801,-0.7700565446938967,0.037869164707111394,-9.79512369303484
3579999999,-0.016856935622057104,0.30763361167440634,-0.011369034135614369,-0.7761801929325779,0.12388315773465142,-9.81589580267268,-0.05982384531149078,0.31762267009542855,-0.0012939790608359637,-0.77132467019039,0.0964625723227393,-9.81286421718679
3589999999,0.0653446908070818,0.4888411640137904,0.0060721030478279835,-0.7651335412696676,0.00048001429952668206,-9.903815755227892,-0.013894808609038755,0.38876349467924537,-0.02827493046857699,-0.7790504058308809,0.07469688437470526,-9.837280224844779
3599999999,-0.0408917795466201,0.5998513138692155,-0.05400810600451893,-0.8390180420727607,0.12586878484948333,-9.849076259229587,-0.024900308706878118,0.5028521453974888,-0.012845962925763753,-0.8027459409765719,0.04379773113133081,-9.846216286605017
3609999999,-0.03682860167468966,0.7963145441915127,-0.042254464053820814,-0.7238345276724484,-0.07554928113967141,-9.897641081335573,-0.012132448432842141,0.6613231721648081,-0.040485831073534415,-0.7922108308133944,0.03512205832461665,-9.835831984577386
3619999999,-0.05269304494065591,0.9378890941468969,0.06107340975351121,-0.6995005432775162,-0.02172913959501488,-9.82972039884097,-0.018356930849986353,0.7916998091822381,-0.007695995673262169,-0.71053253844765,-0.004101223888195209,-9.875417491993458
3629999999,-0.04503364981043911,0.9808524089387345,-0.10013205877466308,-0.7604752056240827,0.06409606349716579,-9.936018100425365,-0.0005020332051369541,0.8878649661856249,-0.03059269151713586,-0.7236514744103408,-0.014212880213983141,-9.926352193495276
3639999999,-0.0019949802198523,0.8768466945774439,-0.07329474986596696,-0.7015345493052482,0.015679179211371897,-9.93254989231684,-0.023352060335953252,0.8970581809247973,-0.06639200476921042,-0.7319425041319374,0.015236096329919686,-9.978844923374178
3649999999,-0.0632635461881777,1.025440740753571,-0.05202039701883096,-0.7881989590194448,0.1088268660327647,-9.913308818014592,-0.033363113200076996,0.9547034653805189,-0.05500124965234715,-0.7682668043746959,0.056087122663895664,-9.956184731811511
3659999999,-0.030495681136408957,1.1902462773393199,-0.053107109233351255,-0.862332841080272,-0.12911715949516345,-10.050755246183906,-0.018296673313192093,1.0733706792671514,-0.0655896123521278,-0.7837604545277094,0.030100325564175835,-10.044576054207901
3669999999,0.009751376850992484,1.2781163725755618,-0.11770559617356857,-0.756744167830215,0.09079556188339186,-10.16250621424271,-0.023492231742577006,1.1666466478160966,-0.08959698338606026,-0.771048686892343,0.0017464869891865992,-10.077233664356067
3679999999,-0.0743118876084444,1.3792995713963543,-0.04988981251770656,-0.697586977069072,0.21105091930029707,-10.123332466219622,-0.0274099914182443,1.2825867028199074,-0.07233488335449456,-0.7065442441831172,0.06123213929080709,-10.141469110386703
3689999999,-0.023915262217822506,1.5215286749745243,-0.03340374482659919,-0.6575834779089657,-0.028356793419037907,-10.253605289656546,-0.04362841585311551,1.4091794386819352,-0.04148147623943676,-0.6840183562222565,0.02447898138156001,-10.187295482298957
3699999999,-0.05484712872566177,1.557366859764505,-0.10403013917674583,-0.6875991988945831,0.007529152137622497,-10.334696382350671,-0.022786005655806924,1.5036515410254863,-0.05943278284486682,-0.7065454048443194,0.029136994928316548,-10.24777448565033
3709999999,-0.035023238148005204,1.6182309285531111,-0.005240529571995292,-0.7939865803646369,-0.12610057512419037,-10.19771998722097,-0.01342569124268785,1.5860175602764304,-0.035278503535466355,-0.7080220267389655,-0.0350040725837805,-10.24171651791772
3719999999,-0.09560903848837055,1.6586379996299205,0.05725602892986964,-0.5920872911803308,0.08466230132826262,-10.33949726112789,-0.041386448020550054,1.643348850112262,-0.009971395248485088,-0.7117487088139759,0.04559261956940662,-10.28385256019402
3729999999,0.052290381492525274,1.786012557981992,-0.03754006374896773,-0.7569483109035193,0.037891457100723724,-10.422455096741107,-0.03271382752538009,1.7210183985610463,-0.01465409317654603,-0.6949432825424261,0.04666145064764457,-10.329357254643513
3739999999,0.055584835444152755,1.806863063403866,-0.018669949504782856,-0.7798187002327078,-0.06558754121066485,-10.336547978751298,-0.016438582747000184,1.7608695771262357,0.0006862456091700708,-0.7178021320743625,-0.008059852902187043,-10.320383696542677
3749999999,-0.06160218774146544,1.7814844294291285,-0.06626087996003813,-0.7188424125856255,0.0061767584190386155,-10.459361057444116,-0.038402270966267416,1.793290622298529,-0.02554967852344712,-0.7369164024053771,-0.010223682792391022,-10.346545005418722
3759999999,0.03250206684379024,1.7507988595942066,0.02013042271035672,-0.7601701373077717,0.002646179097473403,-10.23870632851822,-0.03715604868297273,1.7883495280848973,-0.03883689998670902,-0.6965964450012527,-0.005509858680624091,-10.297071917354682
3769999999,-0.11986194923315777,1.740536293144842,-0.014902853240263532,-0.730001063096308,0.005389039053406022,-10.309652228348387,-0.039277337906397244,1.762517112742782,-0.019326469537089358,-0.6837789754392021,-0.0015726129939553865,-10.292716589586398
3779999999,-0.0900078683133468,1.7471579623563613,-0.046044137590119084,-0.5914913140738187,-0.16920369673058683,-10.286907034383715,-0.07136349384851673,1.7564632459791274,-0.027737712027923037,-0.6418593952868406,-0.05401898300160614,-10.295582783701267
3789999999,-0.19918130895679842,1.630422545437887,-0.10054738736276811,-0.6497471855636687,-0.052796668968209726,-10.338128821609521,-0.11553083895037126,1.6959250384667148,-0.0534138709274495,-0.6362315340457271,-0.09528500013854865,-10.301551277485753
3799999999,-0.07285959516428592,1.653387876022631,-0.053755506252792,-0.6765149018302636,-0.018119952382481156,-10.255052871169374,-0.0908837398881872,1.6617548867790932,-0.03819154556115864,-0.6086123782488169,-0.077921299200178,-10.338074906916624
3809999999,-0.03625409384835798,1.5066937154259918,-0.0007133154408515002,-0.43387451460011206,0.07005097478417535,-10.269221356455338,-0.061200625038947756,1.564355213348095,-0.004527569648674392,-0.5711421759146909,-0.02875724646315388,-10.294548156671409
3819999999,-0.08325296475695051,1.4887442377859172,0.08979259331472542,-0.6966097841846339,-0.06607193504113758,-10.340193602196798,-0.03795787067967632,1.49284914029898,0.043637361969421445,-0.5658620200642588,-0.0062797209889870215,-10.268730008220318
3829999999,-0.025785732760387866,1.4154135823063914,-0.12232982548691364,-0.5578181245513903,0.02495405574031229,-10.367875829062227,-0.062383224695351215,1.4410876582739933,-0.012588969444488611,-0.5517384994765122,0.023522436537405118,-10.334208193901933
3839999999,-0.135086348930301,1.368520956865022,-0.007651296603823664,-0.5696045308583175,0.06864618607902706,-10.285145348693609,-0.06638795117925081,1.3982120037727124,-0.020741447591574903,-0.5623085801748497,0.0025079633770620884,-10.30392584095528
3849999999,-0.059229900057890694,1.2635796715230982,0.06596282731587362,-0.6201694268113623,0.018668312094747994,-10.171735980150428,-0.06635833013527995,1.3348202901147985,0.02449142712226821,-0.627925971284909,-0.004032269068103937,-10.247161896217012
3859999999,-0.008115911896850556,1.2697930139880549,0.11756177500422002,-0.4877804362779023,0.1698583657153789,-10.278788621029323,-0.029384852421835743,1.2768880291306137,0.05531353446298996,-0.5631057666910365,0.03648544120466393,-10.246869488661787
3869999999,0.0019677938159201602,1.0911027807842544,0.00830377906706379,-0.3512880629166072,-0.03160673715169311,-10.208949689969812,-0.015314154738953818,1.1733425222043354,0.03772511059628415,-0.4734981990930436,-0.007695049813518793,-10.240856885119001
3879999999,0.04133721157248559,0.9145090530029031,0.07022078643598884,-0.5182516659488365,0.09365778009068597,-10.21575409090735,-0.029208447110748645,1.0452806475671366,0.03609679233866597,-0.483039918109462,0.0175790607927776,-10.242971954053175
3889999999,-0.056656426658715356,0.9328004437900015,-0.050826618557039314,-0.4918548369501545,0.034946486179413004,-10.34520851348599,-0.02420251923877946,0.9615472029819576,0.023417277659216754,-0.4721783959394065,0.0024358792993384665,-10.304718613577577
3899999999,-0.07293888173527976,0.8650719731707002,-0.16138307519049624,-0.4529495904539471,-0.04601571559202122,-10.391875174509321,-0.03754114227902776,0.8787551175001118,-0.08146423182163359,-0.4478992681652252,0.008127362372472632,-10.340039605609721
3909999999,-0.062158080376546486,0.6093794772471102,-0.04995631923547615,-0.3652523921938342,-0.01755229524042274,-10.259199259390977,-0.06826604610629684,0.7648893975210385,-0.09295546415871007,-0.37611708496531404,-0.001537686093674202,-10.286949360595091
3919999999,-0.144816330881782,0.5476081026629613,0.021477756590489526,-0.4038793699411336,0.07355821945309704,-10.333513613377091,-0.10051541659454244,0.6189967514028178,-0.04412563133811841,-0.37932790615242623,0.004206469523584333,-10.305316279226911
3929999999,-0.0122729496322178,0.4992686309845717,-0.023305517844458713,-0.39322785832182344,0.06714728475145072,-10.282589585668834,-0.09814841040797886,0.5597612273612199,-0.025080489551467203,-0.38715091002870894,0.0003863248802126705,-10.305500728587955
3939999999,-0.04006771036769784,0.41136692270608416,-0.05363692125800386,-0.2683946513420151,0.08629173907382401,-10.388929363065978,-0.07844272690303751,0.48314981347396696,-0.03537156192799369,-0.36108295547728453,0.021401907781054184,-10.31544731735584
3949999999,0.02620499913640932,0.302401994314466,-0.05487183745208201,-0.3290153975660532,-0.02273132597588988,-10.342726763184922,-0.02683648830617212,0.3791467832506395,-0.07445663838807824,-0.3712113276842831,-0.02011537011415951,-10.334345566620149
3959999999,0.007256054059343084,0.14909977977170957,-0.07900336294165944,-0.340261593569241,-0.01793779401130333,-10.18385172841418,-0.01466457188443207,0.2676842023219236,-0.042057568639449774,-0.37626817538440427,-0.01142194670674956,-10.290852116054438
3969999999,-0.004975465134617309,0.18063017001550988,0.036721534141935706,-0.4066651054689586,0.07328196271522093,-10.263498002436034,-0.015717721519444814,0.2063656736179888,-0.008853989570475724,-0.36906206355312304,0.005214903372960765,-10.278723764817757
3979999999,-0.12282779919022108,-0.010345547078824055,0.06261246151803546,-0.18997651382230107,0.028695551333912522,-10.307164681717502,-0.03896973775610183,0.11186027461732685,0.015855224723532086,-0.30674923192946746,0.04016737244553724,-10.283554597306086
3989999999,-0.03000843096968251,-0.0283499823054749,0.003911025560872086,-0.3386436576817518,0.04350866657942405,-10.353754497043491,-0.028487866290204528,0.031112278068672755,0.022870882216087095,-0.30592743061145783,0.03036872437085936,-10.308054733587223
3999999999,-0.049834226561471386,-0.10638169592670968,0.05373269923316659,-0.2475885197929164,0.03346883666424743,-10.381609620853515,0.002372109714850989,-0.0361125101390785,0.043626913494959306,-0.30007419275409464,0.059577414520907236,-10.317739745809178
4009999999,-0.012853228014620896,-0.07356425612335704,-0.080423848012322,-0.2108468427802488,0.023031908256361158,-10.26568319848619,-0.0028132853490266665,-0.07262389426609636,-0.012945313873431303,-0.2640372749556327,0.04571965000268486,-10.3115639675382
4019999999,-0.07573967924690178,-0.26421142763976607,0.030853782001033142,-0.16407561566943268,-0.022799204273796142,-10.363874506162624,-0.054465975163067615,-0.12999501772160327,-0.02478768381327434,-0.22939552374040617,0.022217004444522057,-10.331149437833684
4029999999,0.05407827534082295,-0.18300178705007494,-0.044887790683679665,-0.2607650050667292,-0.0205364892700288,-10.317647748173849,-0.04188567596111255,-0.20057793563141257,-0.02006810271320758,-0.22768722478007752,-0.012455646421561849,-10.36298470965874
4039999999,-0.016720664812070525,-0.22823775562068543,0.05864777899527694,-0.26630875077018007,-0.09052578925012546,-10.423102652159393,-0.007149700397925304,-0.23490746607959098,0.01678592909091759,-0.22221069596578893,-0.03374994434069034,-10.359358101750257
4049999999,-0.08483036866601545,-0.3645786222362861,-0.00010728677607397966,-0.22478571814162218,-0.06409663605019175,-10.310932703081303,-0.03148096532768296,-0.2814295050103446,-0.007290484360539627,-0.22576267355758006,-0.04835993825870792,-10.314159406637483
4059999999,-0.010288145569254444,-0.4150257690731335,0.034317705355681974,-0.19402206310129372,-0.047098623203835975,-10.30527344721614,-0.017589984114220608,-0.32975920035681405,0.009325221367564626,-0.20167026744921573,-0.05209366846710531,-10.30766068873036
4069999999,0.007870861010649786,-0.41252815537451015,0.09343349660644115,-0.2333327465169982,-0.1238120401131147,-10.38006615287828,0.008792352099363226,-0.3732794620121269,0.0231436331168149,-0.23795115667621086,-0.07308211161420519,-10.326091566956174
4079999999,0.11644168151332897,-0.4097038529245189,0.008775402506581893,-0.29267907760886125,-0.05344644015686154,-10.324489141604259,0.05314529817396037,-0.39304577546032266,0.01912160669582558,-0.2301961253408864,-0.07905250216840704,-10.35345399494136
4089999999,-0.013752189772194931,-0.39325639020855524,0.03405778585367712,-0.15192447733003833,0.02303795000679138,-10.277839754445564,0.017247967322543193,-0.3900991493499518,-0.001618321022422507,-0.212229223393407,-0.03234236909550623,-10.34232385629888
4099999999,0.04672498616080649,-0.5153683346424373,0.05911819970528554,-0.17952643332496443,0.016823308056095037,-10.390493545342203,0.03218105380044349,-0.4512251512212168,-0.01017920179120478,-0.15802288386376942,-0.009095917949555892,-10.331690511698113
4109999999,0.14506217749753414,-0.438722781569188,-0.05845488983236447,-0.2553705408843465,0.10930983593942063,-10.292161845684197,0.06994557521931459,-0.4702489105726948,-0.025569579267823342,-0.21183037871751972,0.025681923889370854,-10.338996253766318
4119999999,0.002430092940028236,-0.4686906639038465,-0.00796191056090043,-0.21965312468767667,0.0662021078879044,-10.461257721884346,0.07121954749094686,-0.506654667019003,-0.005482297056593116,-0.21554022309594328,0.04700114654016739,-10.3654320153877
4129999999,-0.031992525868709,-0.42018034498784784,-0.05605881514071009,-0.08616554315669094,0.07025837554027423,-10.388139636848232,0.021156561141920573,-0.44932745751480485,-0.016515786802055073,-0.18638789362654537,0.034607135466703236,-10.389339085772956
4139999999,0.03724735359600978,-0.5208768441599667,0.023619998773381463,-0.2346183327770629,-0.0003674570085827611,-10.409716301637935,0.013586414046243691,-0.48031384792290993,-0.01651610339320104,-0.1681038825031873,0.034055878525103805,-10.375992561093422
4149999999,0.07607112325609935,-0.4510886691366436,-0.024222995154089547,-0.15741872014537586,0.06074959475321966,-10.338225338260816,0.04089960786193961,-0.48206078915185085,-0.01980331605990309,-0.17938068677000293,0.053228792033147995,-10.370299091213901
4159999999,0.030437712111129292,-0.5955422608249219,0.015524783168121031,-0.16163283001103346,-0.11452859043557666,-10.426305392443941,0.016051490936716234,-0.5187629365823864,-0.017008591427075094,-0.14052749320407074,-0.016546161175131604,-10.402846679396934
4169999999,0.06242070653662634,-0.45042930755326194,-0.014427801061688112,-0.024820457677595012,0.11231429755189176,-10.43779333765464,0.00747951925735826,-0.48066442847711205,0.002949819222520065,-0.14824064115600114,-0.018139456909260204,-10.43417566567565
4179999999,-0.01900853737623662,-0.4045688207727647,0.025146874794878985,-0.1647443531506106,0.015181936209107117,-10.307761513160816,0.013917823387071997,-0.44391559193865365,0.022322392545337896,-0.1330042245491314,-0.0018451251439973466,-10.384651905903558
4189999999,-0.058549509652040796,-0.45008858484893943,0.014588124481478958,-0.06726774285176165,0.011969149748129428,-10.287201484674522,-0.01614777753959403,-0.4503843718869715,0.03391600334330362,-0.10272925078275048,0.03113077289788308,-10.357916621316178
4199999999,0.03938565771063986,-0.39709724065340823,-0.07453837354452097,-0.028529835914616344,-0.03378738923502492,-10.460133685959633,0.020521353653168425,-0.44330475052586804,-0.009006715272002927,-0.054393796322003085,-0.016422779963120315,-10.357551065252764
4209999999,0.10075938752264099,-0.4255183677138074,0.03354824247896106,0.015450329342509242,0.031790421467846545,-10.260741506163049,0.04723945640047578,-0.4299297409022749,0.007167393109209875,-0.06171219044138859,0.005349294787866752,-10.330831831600921
4219999999,0.13001789665316624,-0.3977343890704342,-0.0011233722129052187,-0.0317399255982581,-0.0016742658938454606,-10.333653818129875,0.07087668594963825,-0.3911645931657439,0.007234360760541049,-0.07312352442832666,-0.010522234594208327,-10.316925959498313
4229999999,0.025655573318436983,-0.33254619337166996,-0.03883365133748731,-0.0579439901683108,-0.10652165692089041,-10.473301893907175,0.029808466848327622,-0.377202473744225,0.031208248316216266,-0.07438685031606376,-0.023978548475081518,-10.374135205254895
4239999999,0.07666115335070219,-0.31090102307263284,0.0073568682645597135,-0.06697437386415771,0.14026073974675984,-10.35749223755434,0.001565917934053816,-0.3418830894658332,0.03601481704110369,-0.06949449656718248,0.040010517353870956,-10.347768696943476
4249999999,0.006584132070237706,-0.24839214475147522,-0.0023189157069627778,-0.17581979936068265,-0.012283764237615473,-10.410468272591189,-0.006199937138421433,-0.3099088200962524,0.005512692077472258,-0.09868388375706758,0.03134038412769367,-10.371257693224631
4259999999,-0.047110582392194914,-0.2171263850075205,0.10302107138661135,-0.047522517743820145,-0.11260686242916723,-10.404677477256723,-0.0038165832633356685,-0.29477214756449516,0.06656266663081811,-0.0838270229253138,-0.021222742479456214,-10.411664920739724
4269999999,-0.07868988898515564,-0.3267877324500989,0.047815952981053234,-0.15820022096985417,-0.00246187818211097,-10.41731174188031,-0.08202902593936534,-0.2517168884806995,0.06441054488656257,-0.1321974908139718,-0.036368434844673815,-10.387257993833709
4279999999,-0.05375727210168699,-0.28665023298118714,0.02528635853704295,-0.010048014983448164,0.07398842263413351,-10.31227741788382,-0.05389432700861384,-0.24902673208202752,0.06050897875994612,-0.08454479763136566,0.023726339445230775,-10.350106675572544
4289999999,-0.016802971095106332,-0.18977749682209297,-0.08177429216672064,-0.006593240517496334,0.19902236943673338,-10.334558090213106,-0.042547351000166427,-0.2346644975939149,0.017862694744720874,-0.03159484814503125,0.08431985294243213,-10.334756783256925
4299999999,-0.052203930233995714,-0.146871088178698,0.10338391146552875,-0.09787003773969122,0.07012985037423676,-10.352273927863545,-0.035186223311883785,-0.18641193698255487,0.02104508065682769,-0.05494246076664594,0.08818556549574401,-10.35577021836852
4309999999,-0.0602857267839745,-0.20536298815812482,0.06779735150116012,-0.08815657888465145,-0.06951466097154654,-10.546930988975804,-0.03146824121810225,-0.15538457645122422,0.029394203493055014,-0.057633914048270646,0.05753393326951596,-10.420504048348949
4319999999,-0.03901230256554677,-0.02862037351076903,0.059522963740835974,-0.2507248828643837,-0.004117151754022745,-10.197151708432786,-0.019930528472329696,-0.11887606616111668,0.025331355036555044,-0.1087406957893235,-0.01431638180756299,-10.349518364078449
4329999999,-0.005498456135715257,-0.06515852824006449,0.11416041931453448,-0.07721398652016102,0.0466560802139259,-10.34940867096941,-0.022912326615635234,-0.07055319275579865,0.07210102698694024,-0.1134931903166276,-0.014388668834399088,-10.329523004490525
4339999999,0.12905317108436712,-0.15312695227143103,-0.12664775258133767,0.0382477074472863,-0.04199099828842942,-10.422243618900493,0.028897276878088372,-0.0826518323533646,0.005040361787207223,-0.045654062645800825,-0.048306079153496564,-10.358398207206267
4349999999,0.005982824231907999,-0.04704186234346956,0.06203173397382894,-0.07430649009488902,0.005640500934131477,-10.452774005476956,0.04192433609605013,-0.05954176469252017,0.01750321571604435,-0.05475662648660368,-4.701961537013216e-05,-10.383220023223085
4359999999,0.033191648914090974,-0.04793491239486926,-0.06697173798181946,-0.0006009130144485272,0.01265702631291929,-10.370818304766567,0.037005150946603886,-0.018858396638947537,-0.015275107245478904,-0.026062930806600132,0.016344334395323724,-10.397473254354576
4369999999,0.10734366263870712,0.09578741495626769,0.006287223067856371,-0.116715317418883,0.06350869415981282,-10.41847154819264,0.04566310872532593,0.04579317073230663,0.0028813400895111945,-0.025236894158291803,0.046440607452998856,-10.403521003118252
4379999999,0.00457793011024453,-0.0075879499771755315,0.11732932299081861,0.04370456350450826,-0.09203718498411073,-10.474739623181918,0.04475933737198157,0.05203116826096793,0.043369823975409935,-0.034503343292328424,-0.03549318045206731,-10.430174223030306
4389999999,-0.08184043321220706,0.06236099905605352,-0.004354789440965989,-0.0436456343287327,0.030087697076747064,-10.32484084520777,-0.011366524586196584,0.06142234363517746,0.023440476145904058,-0.023798387486010292,-0.004687923688788039,-10.373569825401727
4399999999,0.008466864055778978,0.08642787328058316,0.012968296856897278,0.06528551918102572,-0.06061892497185625,-10.244684967123952,-0.02681706605067382,0.09168612220902472,0.031455163715276784,0.05241062549725838,-0.004074248154576909,-10.328603272509826
4409999999,0.07126711996402185,0.054755293966232105,0.01989047038306841,0.06446621696726722,0.15168546891522466,-10.342085550750308,0.04236697638294371,0.10418983737423476,0.03677395104925608,0.06564791262555067,0.03025884324614339,-10.322231227254049
4419999999,0.03727240234624833,0.10530158765669277,0.016329850193617067,-0.031990156766641395,0.14003059089110334,-10.28974241893163,0.04608164369724217,0.10585445806318211,-0.007863765280754841,-0.02331851088243817,0.06276405466380117,-10.306508234585579
4429999999,-0.1085958888848057,0.1358046727537941,0.03947981005167629,-0.022637655300686822,-0.022487383766370897,-10.345031363083109,-0.003941537305938509,0.11381951831080742,-0.01694808293340157,-0.03056078135455944,0.007633277892876957,-10.312430294549378
4439999999,-0.039261922122880766,0.11107263329847762,0.004512295631602124,-0.0037031370766896776,-0.032420381990648436,-10.357162334241123,0.0007718876146664009,0.13053369835647596,-0.027677708863722523,-0.028159380559555934,-0.009488134073215694,-10.333531518075159
4449999999,-0.022089671860291482,0.23476051652438637,0.16205414659007425,0.030034780658995838,-0.06590842810416828,-10.440610553652458,0.019472244197238007,0.18842701042553617,0.038252128416549486,-0.016495558027536716,-0.051468997985699,-10.357480051206585
4459999999,0.1549971373850613,0.24960358683089975,0.023440186424962234,-0.05300225317584533,-0.09941336842424493,-10.322349645052833,0.056970131608086824,0.19139585720806485,0.012503437135858015,0.003657874657115023,-0.03164031245354481,-10.33280535054561
4469999999,0.10794743989886191,0.12846330517001286,0.050647007469346764,-0.14601653383395363,0.0588259884132128,-10.351588455882188,0.0883033655340107,0.1731049312993037,0.01323091174891157,-0.04475394103473551,-0.00463318423043408,-10.294604602723712
4479999999,0.06773812981700292,0.1742041243341845,-0.021310349537403937,-0.07767864588328964,0.11416317625701738,-10.368711621780177,0.025125850404534227,0.19032992983802027,-0.006871937485148931,-0.05928937881733783,0.017236091416749175,-10.297399484608842
4489999999,-0.024641295000705263,0.09287735257122598,-0.12013204073189335,0.060424795350354124,-0.01634120276485903,-10.368844841524194,0.011111797123764982,0.12495313477268322,-0.07074756884549152,-0.041178719111737816,-0.0013744421800772726,-10.324250746926136
4499999999,-0.09646941454993563,0.14182511974923745,0.0008499604284771707,0.0038189054513631943,-0.09059730812782384,-10.22128853256846,-0.03438782253966764,0.12043580658975361,-0.07771469176083512,-0.03409760804877201,-0.025994851297243236,-10.274364159779974
4509999999,-0.05588915875352097,0.1473322595844493,-0.05655450055637137,0.1151340556174048,-0.1380143280668748,-10.325504523408153,-0.04951652074204934,0.13662400110904988,-0.040830401248194,0.02349101399458715,-0.03309423700315367,-10.275185977303762
4519999999,0.04002410042706298,0.25496140180535354,-0.10542080378189772,-0.046642830798108416,-0.0044405789655738515,-10.263737608254393,0.0026938124563322084,0.20744756939843484,-0.09373866889688987,0.003931536425707108,0.002790002787209052,-10.268873545897208
4529999999,-0.0458406691138223,0.09994066569670093,0.02817007866851811,0.010761837803928023,-0.026853286447958414,-10.18954246851995,-0.03567013583310582,0.16887487829840975,-0.026910262218213205,-0.02644573990737398,-0.008586562695098129,-10.223843696966945
4539999999,-0.039413282034145666,0.10305925482475954,0.05764818074295064,-0.11406118224197156,-0.08623994155077723,-10.235516436123241,-0.02204619651686113,0.14430801685389136,0.0059604711620720695,-0.06933015400428058,-0.039363619931170324,-10.261477299912952
4549999999,-0.14355700890814405,0.22887662153894056,-0.043758250399039675,-0.04594171517289954,0.01945608014338261,-10.235756447355557,-0.05007582461384147,0.16068398944809642,-0.06289853537934328,-0.07338195085470789,0.002969203979611309,-10.231601720280748
4559999999,-0.02731284628753782,0.03306432652488271,-0.007178464819798554,-0.025402287270818696,-0.08481986139131012,-10.176833365083722,-0.035045393207782244,0.13171327101731806,-0.02509043485565067,-0.0390480130774722,-0.012738906955206993,-10.255760854364153
4569999999,0.03845317572267309,0.14394142046807137,-0.06288503245925903,-0.09112856946896289,-0.03366126242127706,-10.34861025025592,0.011366000399542723,0.13986428803858414,-0.027778160267440746,-0.05422444242515577,-0.0673686372271381,-10.245947716222602
4579999999,-0.11455252723899043,0.049176970131676725,-0.10907833688538687,0.015119595771554525,0.09782674280752508,-10.25305840809579,-0.02034291714430181,0.09342929277795439,-0.05591715040227134,-0.05305809720371371,-0.027720342605565166,-10.273134102464246
4589999999,0.023502545527288938,0.025849175258630633,-0.09657883716731636,0.003554141748211063,-0.04131590083572701,-10.208499792943746,0.0023744181066857944,0.07614644126151193,-0.05765620550432825,0.003105637675956157,0.03991125746727898,-10.253309507691588
4599999999,0.0056712497007482335,0.03132525244079325,0.12448518620796988,-0.07338705193019211,-0.001634341231043522,-10.267748038170142,-0.029044510116295393,0.04874658355341263,-0.012656702820107113,-0.012677202800644969,0.014166883061839317,-10.249669148265962
4609999999,-0.021076025084634034,-0.07903652431261941,0.0408273503365766,-0.016959375044882485,-0.09311037814881784,-10.222262729340544,-0.018172983833820284,-0.000800091858451004,0.0330454268784756,-0.02962046384017647,-0.013970201387792177,-10.210389299443824
4619999999,0.012371470104084174,-0.03024543223900794,-0.026733542927635537,0.10423021376446114,0.02606711519823034,-10.156040962694236,-0.016641130638958387,-0.023379851935791285,0.021381470968170363,-0.007330493301079141,0.01846979582359205,-10.180607832641215
4629999999,0.08128005189473453,-0.0686236649362161,-0.0013811255348008715,0.01787433477448503,0.06968324251942429,-10.163184003156124,0.013498303162560255,-0.028011896918878856,0.0021547372763260344,-0.01644133370605093,0.027243198275651317,-10.167749267568489
4639999999,0.036329601761879465,-0.14084892713884398,-0.044158072840879914,-0.02753210919816201,-0.0019628704786443796,-10.095039551871695,0.03256609491078776,-0.1329548785813532,0.006376316299158689,-0.01760342842051569,0.01704120280320398,-10.130480026852974
4649999999,0.005851346058835806,-0.28535257323728125,0.12108598103004735,0.019820582856009305,0.08814970822537442,-10.055504920515345,0.025572758717890394,-0.2015537971061478,0.058350147441980055,-0.02996261437381575,0.0547373187816819,-10.079260290604243
4659999999,0.010248937054857769,-0.21988934315933148,0.00973317381619193,0.04367280593521065,0.00978635787861233,-10.089501775060231,0.03456200601697373,-0.20848668183336033,0.03004831339093989,0.021624926247109592,0.011003489549077873,-10.074954469092722
4669999999,0.06881664005138793,-0.28107894771169156,0.033705932146445024,0.07241598991414075,-0.0562334544527078,-10.065853727279311,0.017432946530289546,-0.2717435421496086,-0.0029710613580361525,0.03553274713068192,-0.01312230107668841,-10.08906636877835
4679999999,-0.032913073283755395,-0.30793056225883203,0.027385330049721313,-0.024125804246665054,0.05866449530704811,-10.04487460951746,0.009590950242738115,-0.32643725876494767,0.02181136732773136,0.03257249263500733,0.014086206513944141,-10.059771785687005
4689999999,-0.030167258532336053,-0.4280115104329143,0.04699900791992245,-0.01768009548958873,-0.14030817560028902,-10.184264300134192,-0.003626555092683675,-0.3892672414726036,0.017719339259372337,0.03780985441898547,-0.055576808957391886,-10.10755495435158
4699999999,-0.05522295650285736,-0.48733645208305737,0.006029121480222596,-0.06249445604409754,-0.031985275726481265,-9.93608633958209,-0.03229469954401783,-0.4409588222252744,0.011005896441291478,-0.007644020491557617,-0.06697811684580435,-10.061002836205589
4709999999,-0.046242710088376854,-0.4855856936837657,-0.030194593121274583,-0.0874159684115527,0.0054353277919772305,-9.933305398707324,-0.03486723438823454,-0.4847317213353657,-0.008493053766126635,-0.03753886367441885,-0.034584228859790275,-9.99206809002291
